Filename	4-methyl-3-nitrophenol
Instrument name	DSC2A-00807 (172.23.165.2)
Operator	Petroc Shelley
rundate	5/3/2019
Sample name	4-methyl-3-nitrophenol
proceduresegments	Ramp 10 °C/min to 140.00 °C
[step]
Ramp 10 °C/min to 140.00 °C
Time	Temperature	Heat Flow (Normalized)
min	°C	W/g
0.00000		
1.66667e-3		
3.33333e-3		
5.00000e-3		
6.66667e-3		
8.33333e-3	30.579	
0.0100000	30.582	
0.0116667	30.585	
0.0133333	30.586	
0.0150000	30.589	
0.0166667	30.590	
0.0183333	30.593	
0.0200000	30.596	
0.0216667	30.598	
0.0233333	30.601	
0.0250000	30.603	
0.0266667	30.606	
0.0283333	30.608	
0.0300000	30.612	
0.0316667	30.614	
0.0333333	30.617	
0.0350000	30.620	
0.0366667	30.623	
0.0383333	30.625	
0.0400000	30.628	
0.0416667	30.631	
0.0433333	30.635	
0.0450000	30.638	
0.0466667	30.641	
0.0483333	30.643	
0.0500000	30.647	
0.0516667	30.650	
0.0533333	30.653	
0.0550000	30.658	
0.0566667	30.660	
0.0583333	30.664	-0.291069
0.0600000	30.669	-0.291054
0.0616667	30.673	-0.291016
0.0633333	30.676	-0.290959
0.0650000	30.681	-0.290860
0.0666667	30.685	-0.290749
0.0683333	30.690	-0.290673
0.0700000	30.695	-0.290611
0.0716667	30.700	-0.290579
0.0733333	30.704	-0.290549
0.0750000	30.711	-0.290533
0.0766667	30.717	-0.290526
0.0783333	30.722	-0.290532
0.0800000	30.728	-0.290580
0.0816667	30.733	-0.290718
0.0833333	30.740	-0.291010
0.0850000	30.747	-0.291493
0.0866667	30.753	-0.292577
0.0883333	30.758	-0.294214
0.0900000	30.767	-0.296908
0.0916667	30.772	-0.300734
0.0933333	30.780	-0.306116
0.0950000	30.787	-0.312730
0.0966667	30.795	-0.321017
0.0983333	30.802	-0.328452
0.100000	30.810	-0.334446
0.101667	30.819	-0.339851
0.103333	30.827	-0.344170
0.105000	30.835	-0.348441
0.106667	30.844	-0.352215
0.108333	30.853	-0.356436
0.110000	30.861	-0.360942
0.111667	30.869	-0.364551
0.113333	30.879	-0.370077
0.115000	30.888	-0.375275
0.116667	30.898	-0.380773
0.118333	30.908	-0.385286
0.120000	30.917	-0.390224
0.121667	30.927	-0.394633
0.123333	30.938	-0.400189
0.125000	30.947	-0.404492
0.126667	30.956	-0.409658
0.128333	30.966	-0.412681
0.130000	30.977	-0.416425
0.131667	30.989	-0.420489
0.133333	30.998	-0.424696
0.135000	31.010	-0.428428
0.136667	31.021	-0.432139
0.138333	31.033	-0.436643
0.140000	31.043	-0.439331
0.141667	31.054	-0.443015
0.143333	31.066	-0.445805
0.145000	31.077	-0.448584
0.146667	31.088	-0.451422
0.148333	31.100	-0.453422
0.150000	31.111	-0.456398
0.151667	31.123	-0.458085
0.153333	31.134	-0.460332
0.155000	31.146	-0.462865
0.156667	31.157	-0.465991
0.158333	31.169	-0.467497
0.160000	31.182	-0.468372
0.161667	31.193	-0.470526
0.163333	31.204	-0.472490
0.165000	31.217	-0.474554
0.166667	31.229	-0.475443
0.168333	31.242	-0.476348
0.170000	31.255	-0.476925
0.171667	31.267	-0.477535
0.173333	31.279	-0.479871
0.175000	31.291	-0.481723
0.176667	31.303	-0.481875
0.178333	31.316	-0.482015
0.180000	31.328	-0.482473
0.181667	31.341	-0.482677
0.183333	31.353	-0.483601
0.185000	31.366	-0.483026
0.186667	31.379	-0.483128
0.188333	31.392	-0.483026
0.190000	31.405	-0.482423
0.191667	31.418	-0.482385
0.193333	31.430	-0.482767
0.195000	31.443	-0.482991
0.196667	31.457	-0.482828
0.198333	31.469	-0.482787
0.200000	31.482	-0.482679
0.201667	31.494	-0.482845
0.203333	31.509	-0.482827
0.205000	31.520	-0.483026
0.206667	31.534	-0.483165
0.208333	31.547	-0.483510
0.210000	31.561	-0.483910
0.211667	31.574	-0.484225
0.213333	31.588	-0.484470
0.215000	31.601	-0.484530
0.216667	31.614	-0.484467
0.218333	31.628	-0.482730
0.220000	31.641	-0.481247
0.221667	31.654	-0.480213
0.223333	31.668	-0.479291
0.225000	31.681	-0.478860
0.226667	31.695	-0.478593
0.228333	31.709	-0.478708
0.230000	31.722	-0.478874
0.231667	31.736	-0.479455
0.233333	31.748	-0.479573
0.235000	31.762	-0.479744
0.236667	31.776	-0.479904
0.238333	31.789	-0.480009
0.240000	31.804	-0.480052
0.241667	31.818	-0.480199
0.243333	31.830	-0.480298
0.245000	31.846	-0.480189
0.246667	31.860	-0.479846
0.248333	31.873	-0.479553
0.250000	31.887	-0.479279
0.251667	31.901	-0.479050
0.253333	31.914	-0.478857
0.255000	31.929	-0.478692
0.256667	31.943	-0.478574
0.258333	31.957	-0.478583
0.260000	31.971	-0.478570
0.261667	31.985	-0.478574
0.263333	32.000	-0.478610
0.265000	32.014	-0.478584
0.266667	32.029	-0.478526
0.268333	32.042	-0.478452
0.270000	32.059	-0.478396
0.271667	32.072	-0.478374
0.273333	32.086	-0.478345
0.275000	32.100	-0.478285
0.276667	32.116	-0.478196
0.278333	32.129	-0.478063
0.280000	32.143	-0.477885
0.281667	32.157	-0.477720
0.283333	32.172	-0.477581
0.285000	32.187	-0.477439
0.286667	32.202	-0.477305
0.288333	32.216	-0.477191
0.290000	32.230	-0.477150
0.291667	32.245	-0.477148
0.293333	32.260	-0.477148
0.295000	32.275	-0.477114
0.296667	32.289	-0.477033
0.298333	32.304	-0.476889
0.300000	32.318	-0.476697
0.301667	32.334	-0.476439
0.303333	32.349	-0.476180
0.305000	32.365	-0.475942
0.306667	32.378	-0.475779
0.308333	32.393	-0.475646
0.310000	32.408	-0.475524
0.311667	32.423	-0.475398
0.313333	32.438	-0.475268
0.315000	32.453	-0.475111
0.316667	32.469	-0.474957
0.318333	32.483	-0.474771
0.320000	32.499	-0.474578
0.321667	32.512	-0.474383
0.323333	32.528	-0.474242
0.325000	32.543	-0.474121
0.326667	32.558	-0.474014
0.328333	32.574	-0.473891
0.330000	32.589	-0.473645
0.331667	32.604	-0.473144
0.333333	32.620	-0.472515
0.335000	32.634	-0.471740
0.336667	32.650	-0.470756
0.338333	32.665	-0.469755
0.340000	32.680	-0.469096
0.341667	32.695	-0.468704
0.343333	32.711	-0.468340
0.345000	32.725	-0.468103
0.346667	32.741	-0.467987
0.348333	32.756	-0.467917
0.350000	32.771	-0.467838
0.351667	32.787	-0.467756
0.353333	32.802	-0.467643
0.355000	32.817	-0.467533
0.356667	32.832	-0.467364
0.358333	32.847	-0.467247
0.360000	32.863	-0.467119
0.361667	32.878	-0.466958
0.363333	32.894	-0.466709
0.365000	32.909	-0.466260
0.366667	32.924	-0.465720
0.368333	32.940	-0.465218
0.370000	32.956	-0.464608
0.371667	32.971	-0.463945
0.373333	32.986	-0.463040
0.375000	33.002	-0.461957
0.376667	33.017	-0.461073
0.378333	33.032	-0.460284
0.380000	33.049	-0.459712
0.381667	33.064	-0.459175
0.383333	33.080	-0.458603
0.385000	33.095	-0.457979
0.386667	33.111	-0.457386
0.388333	33.126	-0.456929
0.390000	33.142	-0.456480
0.391667	33.157	-0.456005
0.393333	33.174	-0.455569
0.395000	33.189	-0.455267
0.396667	33.204	-0.454941
0.398333	33.220	-0.454491
0.400000	33.236	-0.453887
0.401667	33.252	-0.453166
0.403333	33.268	-0.452445
0.405000	33.283	-0.451794
0.406667	33.298	-0.451028
0.408333	33.314	-0.450120
0.410000	33.330	-0.448951
0.411667	33.345	-0.447511
0.413333	33.361	-0.446504
0.415000	33.377	-0.445508
0.416667	33.393	-0.444517
0.418333	33.408	-0.443642
0.420000	33.425	-0.442840
0.421667	33.440	-0.442010
0.423333	33.456	-0.441416
0.425000	33.471	-0.440835
0.426667	33.487	-0.440286
0.428333	33.502	-0.439872
0.430000	33.519	-0.439622
0.431667	33.534	-0.439304
0.433333	33.550	-0.438912
0.435000	33.567	-0.438523
0.436667	33.582	-0.438194
0.438333	33.599	-0.437896
0.440000	33.613	-0.437636
0.441667	33.629	-0.437372
0.443333	33.646	-0.436922
0.445000	33.661	-0.436317
0.446667	33.678	-0.435459
0.448333	33.694	-0.434960
0.450000	33.709	-0.434341
0.451667	33.725	-0.433526
0.453333	33.740	-0.432903
0.455000	33.757	-0.432270
0.456667	33.772	-0.431799
0.458333	33.788	-0.431460
0.460000	33.805	-0.431100
0.461667	33.820	-0.430817
0.463333	33.836	-0.430543
0.465000	33.851	-0.430155
0.466667	33.867	-0.429926
0.468333	33.883	-0.429733
0.470000	33.900	-0.429546
0.471667	33.916	-0.429331
0.473333	33.932	-0.429115
0.475000	33.948	-0.428769
0.476667	33.964	-0.428204
0.478333	33.979	-0.427443
0.480000	33.995	-0.426523
0.481667	34.011	-0.425534
0.483333	34.027	-0.424222
0.485000	34.044	-0.422996
0.486667	34.060	-0.422130
0.488333	34.074	-0.421515
0.490000	34.091	-0.421093
0.491667	34.107	-0.420815
0.493333	34.124	-0.420506
0.495000	34.139	-0.420145
0.496667	34.155	-0.419773
0.498333	34.172	-0.419462
0.500000	34.188	-0.419175
0.501667	34.205	-0.418487
0.503333	34.222	-0.417570
0.505000	34.238	-0.416348
0.506667	34.253	-0.414913
0.508333	34.269	-0.413642
0.510000	34.285	-0.412780
0.511667	34.301	-0.412009
0.513333	34.317	-0.411421
0.515000	34.333	-0.411129
0.516667	34.349	-0.410972
0.518333	34.365	-0.410894
0.520000	34.381	-0.410722
0.521667	34.397	-0.410487
0.523333	34.413	-0.410122
0.525000	34.429	-0.409557
0.526667	34.446	-0.408869
0.528333	34.462	-0.408126
0.530000	34.478	-0.407192
0.531667	34.495	-0.406637
0.533333	34.511	-0.406275
0.535000	34.527	-0.406139
0.536667	34.543	-0.406039
0.538333	34.559	-0.405886
0.540000	34.576	-0.405691
0.541667	34.592	-0.405510
0.543333	34.608	-0.405324
0.545000	34.624	-0.405101
0.546667	34.640	-0.404728
0.548333	34.655	-0.404125
0.550000	34.672	-0.403525
0.551667	34.689	-0.402561
0.553333	34.705	-0.402020
0.555000	34.722	-0.401607
0.556667	34.738	-0.401340
0.558333	34.754	-0.400996
0.560000	34.770	-0.400492
0.561667	34.786	-0.400162
0.563333	34.803	-0.399999
0.565000	34.819	-0.399874
0.566667	34.834	-0.399752
0.568333	34.850	-0.399647
0.570000	34.868	-0.399477
0.571667	34.884	-0.399291
0.573333	34.900	-0.398905
0.575000	34.916	-0.398467
0.576667	34.932	-0.397961
0.578333	34.948	-0.397000
0.580000	34.965	-0.396134
0.581667	34.982	-0.395511
0.583333	34.998	-0.394850
0.585000	35.014	-0.394305
0.586667	35.030	-0.393905
0.588333	35.047	-0.393727
0.590000	35.063	-0.393558
0.591667	35.080	-0.393354
0.593333	35.097	-0.393156
0.595000	35.112	-0.392943
0.596667	35.128	-0.392610
0.598333	35.144	-0.392363
0.600000	35.160	-0.392118
0.601667	35.177	-0.391868
0.603333	35.193	-0.391463
0.605000	35.210	-0.390928
0.606667	35.226	-0.390290
0.608333	35.242	-0.389501
0.610000	35.258	-0.388920
0.611667	35.275	-0.388475
0.613333	35.292	-0.388057
0.615000	35.307	-0.387583
0.616667	35.323	-0.387360
0.618333	35.339	-0.387179
0.620000	35.356	-0.386964
0.621667	35.372	-0.386753
0.623333	35.389	-0.386326
0.625000	35.405	-0.385610
0.626667	35.421	-0.384801
0.628333	35.438	-0.384158
0.630000	35.454	-0.383663
0.631667	35.471	-0.383345
0.633333	35.487	-0.382939
0.635000	35.504	-0.382706
0.636667	35.520	-0.382572
0.638333	35.536	-0.382473
0.640000	35.552	-0.382224
0.641667	35.569	-0.381966
0.643333	35.584	-0.381649
0.645000	35.601	-0.381244
0.646667	35.617	-0.380820
0.648333	35.634	-0.380390
0.650000	35.651	-0.380097
0.651667	35.666	-0.379770
0.653333	35.683	-0.379445
0.655000	35.700	-0.379236
0.656667	35.716	-0.379092
0.658333	35.732	-0.378896
0.660000	35.748	-0.378701
0.661667	35.766	-0.378445
0.663333	35.781	-0.378040
0.665000	35.797	-0.377774
0.666667	35.815	-0.377482
0.668333	35.831	-0.376997
0.670000	35.848	-0.376512
0.671667	35.865	-0.376071
0.673333	35.880	-0.375735
0.675000	35.897	-0.375467
0.676667	35.912	-0.375360
0.678333	35.930	-0.375308
0.680000	35.945	-0.375241
0.681667	35.961	-0.375181
0.683333	35.978	-0.375133
0.685000	35.995	-0.375021
0.686667	36.011	-0.374827
0.688333	36.027	-0.374641
0.690000	36.043	-0.374417
0.691667	36.060	-0.374126
0.693333	36.076	-0.373853
0.695000	36.093	-0.373613
0.696667	36.109	-0.373425
0.698333	36.127	-0.373247
0.700000	36.143	-0.373076
0.701667	36.159	-0.372911
0.703333	36.175	-0.372667
0.705000	36.193	-0.372356
0.706667	36.208	-0.371949
0.708333	36.224	-0.371596
0.710000	36.240	-0.371170
0.711667	36.257	-0.370642
0.713333	36.273	-0.369945
0.715000	36.290	-0.369401
0.716667	36.306	-0.369077
0.718333	36.323	-0.368831
0.720000	36.340	-0.368693
0.721667	36.356	-0.368582
0.723333	36.372	-0.368516
0.725000	36.388	-0.368296
0.726667	36.405	-0.368047
0.728333	36.421	-0.367964
0.730000	36.439	-0.367808
0.731667	36.455	-0.367553
0.733333	36.471	-0.367354
0.735000	36.488	-0.367199
0.736667	36.504	-0.367094
0.738333	36.520	-0.367010
0.740000	36.537	-0.366920
0.741667	36.554	-0.366822
0.743333	36.571	-0.366734
0.745000	36.586	-0.366666
0.746667	36.604	-0.366496
0.748333	36.620	-0.366231
0.750000	36.636	-0.365835
0.751667	36.652	-0.365413
0.753333	36.668	-0.365168
0.755000	36.684	-0.364989
0.756667	36.702	-0.364841
0.758333	36.718	-0.364756
0.760000	36.735	-0.364700
0.761667	36.751	-0.364647
0.763333	36.768	-0.364546
0.765000	36.785	-0.364487
0.766667	36.799	-0.364427
0.768333	36.817	-0.364356
0.770000	36.833	-0.364268
0.771667	36.849	-0.364213
0.773333	36.865	-0.364156
0.775000	36.883	-0.364098
0.776667	36.899	-0.364015
0.778333	36.915	-0.363954
0.780000	36.932	-0.363896
0.781667	36.949	-0.363834
0.783333	36.966	-0.363773
0.785000	36.983	-0.363702
0.786667	36.999	-0.363652
0.788333	37.015	-0.363615
0.790000	37.032	-0.363560
0.791667	37.048	-0.363505
0.793333	37.064	-0.363448
0.795000	37.081	-0.363402
0.796667	37.097	-0.363355
0.798333	37.115	-0.363309
0.800000	37.131	-0.363261
0.801667	37.146	-0.363207
0.803333	37.163	-0.363159
0.805000	37.180	-0.363113
0.806667	37.197	-0.363065
0.808333	37.214	-0.363015
0.810000	37.230	-0.362965
0.811667	37.246	-0.362915
0.813333	37.263	-0.362865
0.815000	37.279	-0.362822
0.816667	37.296	-0.362778
0.818333	37.313	-0.362730
0.820000	37.330	-0.362675
0.821667	37.346	-0.362625
0.823333	37.362	-0.362583
0.825000	37.379	-0.362541
0.826667	37.395	-0.362490
0.828333	37.412	-0.362436
0.830000	37.428	-0.362375
0.831667	37.444	-0.362314
0.833333	37.461	-0.362266
0.835000	37.478	-0.362218
0.836667	37.494	-0.362167
0.838333	37.510	-0.362114
0.840000	37.528	-0.362072
0.841667	37.544	-0.362037
0.843333	37.561	-0.362006
0.845000	37.577	-0.361971
0.846667	37.593	-0.361936
0.848333	37.609	-0.361900
0.850000	37.626	-0.361869
0.851667	37.642	-0.361849
0.853333	37.659	-0.361829
0.855000	37.675	-0.361802
0.856667	37.692	-0.361777
0.858333	37.710	-0.361754
0.860000	37.726	-0.361728
0.861667	37.742	-0.361706
0.863333	37.759	-0.361677
0.865000	37.775	-0.361647
0.866667	37.790	-0.361621
0.868333	37.807	-0.361600
0.870000	37.823	-0.361596
0.871667	37.840	-0.361599
0.873333	37.858	-0.361619
0.875000	37.874	-0.361635
0.876667	37.890	-0.361636
0.878333	37.907	-0.361633
0.880000	37.924	-0.361635
0.881667	37.941	-0.361631
0.883333	37.957	-0.361625
0.885000	37.974	-0.361622
0.886667	37.990	-0.361622
0.888333	38.006	-0.361636
0.890000	38.023	-0.361684
0.891667	38.039	-0.361708
0.893333	38.056	-0.361722
0.895000	38.071	-0.361734
0.896667	38.088	-0.361749
0.898333	38.105	-0.361763
0.900000	38.122	-0.361796
0.901667	38.138	-0.361829
0.903333	38.155	-0.361844
0.905000	38.172	-0.361863
0.906667	38.189	-0.361905
0.908333	38.205	-0.361993
0.910000	38.221	-0.362040
0.911667	38.238	-0.362120
0.913333	38.255	-0.362226
0.915000	38.271	-0.362536
0.916667	38.288	-0.362890
0.918333	38.304	-0.363271
0.920000	38.321	-0.363633
0.921667	38.337	-0.363900
0.923333	38.353	-0.364186
0.925000	38.370	-0.364318
0.926667	38.388	-0.364362
0.928333	38.403	-0.364407
0.930000	38.420	-0.364477
0.931667	38.437	-0.364531
0.933333	38.454	-0.364666
0.935000	38.469	-0.364813
0.936667	38.486	-0.365155
0.938333	38.504	-0.365489
0.940000	38.520	-0.365707
0.941667	38.536	-0.366009
0.943333	38.553	-0.366289
0.945000	38.569	-0.366536
0.946667	38.585	-0.366733
0.948333	38.601	-0.366931
0.950000	38.618	-0.367073
0.951667	38.635	-0.367188
0.953333	38.652	-0.367357
0.955000	38.669	-0.367920
0.956667	38.685	-0.368688
0.958333	38.702	-0.369303
0.960000	38.719	-0.369939
0.961667	38.736	-0.370431
0.963333	38.752	-0.371000
0.965000	38.768	-0.371549
0.966667	38.785	-0.372062
0.968333	38.801	-0.372647
0.970000	38.818	-0.372931
0.971667	38.834	-0.373236
0.973333	38.852	-0.373805
0.975000	38.868	-0.374570
0.976667	38.885	-0.375289
0.978333	38.901	-0.376101
0.980000	38.917	-0.376903
0.981667	38.935	-0.377683
0.983333	38.950	-0.378741
0.985000	38.967	-0.379686
0.986667	38.983	-0.380274
0.988333	39.000	-0.380578
0.990000	39.017	-0.380804
0.991667	39.033	-0.380995
0.993333	39.050	-0.381210
0.995000	39.066	-0.381438
0.996667	39.083	-0.381593
0.998333	39.100	-0.381762
1.00000	39.116	-0.382023
1.00167	39.132	-0.382398
1.00333	39.149	-0.382863
1.00500	39.166	-0.383183
1.00667	39.184	-0.383358
1.00833	39.200	-0.383518
1.01000	39.216	-0.383702
1.01167	39.232	-0.384019
1.01333	39.248	-0.384596
1.01500	39.266	-0.385237
1.01667	39.281	-0.385915
1.01833	39.298	-0.386669
1.02000	39.314	-0.387637
1.02167	39.332	-0.388646
1.02333	39.348	-0.389283
1.02500	39.365	-0.389623
1.02667	39.381	-0.389864
1.02833	39.398	-0.390105
1.03000	39.416	-0.390342
1.03167	39.432	-0.390653
1.03333	39.449	-0.390971
1.03500	39.464	-0.391495
1.03667	39.482	-0.392188
1.03833	39.498	-0.393206
1.04000	39.514	-0.394190
1.04167	39.530	-0.395487
1.04333	39.547	-0.396565
1.04500	39.564	-0.397508
1.04667	39.580	-0.398397
1.04833	39.597	-0.399154
1.05000	39.615	-0.399743
1.05167	39.631	-0.400097
1.05333	39.646	-0.400377
1.05500	39.665	-0.400607
1.05667	39.680	-0.400865
1.05833	39.696	-0.401089
1.06000	39.714	-0.401490
1.06167	39.729	-0.402014
1.06333	39.746	-0.402575
1.06500	39.763	-0.403392
1.06667	39.779	-0.404298
1.06833	39.797	-0.405504
1.07000	39.813	-0.406748
1.07167	39.829	-0.408526
1.07333	39.846	-0.409650
1.07500	39.862	-0.410404
1.07667	39.880	-0.411019
1.07833	39.896	-0.411671
1.08000	39.912	-0.412261
1.08167	39.929	-0.412547
1.08333	39.945	-0.412716
1.08500	39.962	-0.412905
1.08667	39.980	-0.413080
1.08833	39.995	-0.413445
1.09000	40.013	-0.413941
1.09167	40.029	-0.414202
1.09333	40.045	-0.414439
1.09500	40.062	-0.414832
1.09667	40.078	-0.415669
1.09833	40.095	-0.416523
1.10000	40.111	-0.417147
1.10167	40.128	-0.417571
1.10333	40.145	-0.418070
1.10500	40.163	-0.418574
1.10667	40.180	-0.419141
1.10833	40.195	-0.419935
1.11000	40.212	-0.420442
1.11167	40.228	-0.420851
1.11333	40.245	-0.421408
1.11500	40.262	-0.422218
1.11667	40.279	-0.422935
1.11833	40.295	-0.423407
1.12000	40.311	-0.423716
1.12167	40.328	-0.423932
1.12333	40.345	-0.424131
1.12500	40.362	-0.424329
1.12667	40.378	-0.424623
1.12833	40.394	-0.424854
1.13000	40.410	-0.425228
1.13167	40.428	-0.425563
1.13333	40.444	-0.425793
1.13500	40.461	-0.426080
1.13667	40.477	-0.426441
1.13833	40.495	-0.426783
1.14000	40.511	-0.427134
1.14167	40.527	-0.427470
1.14333	40.543	-0.427742
1.14500	40.559	-0.428130
1.14667	40.577	-0.428632
1.14833	40.594	-0.429246
1.15000	40.610	-0.430071
1.15167	40.627	-0.430690
1.15333	40.643	-0.431456
1.15500	40.660	-0.432381
1.15667	40.677	-0.433386
1.15833	40.694	-0.434099
1.16000	40.710	-0.434660
1.16167	40.727	-0.434996
1.16333	40.743	-0.435259
1.16500	40.760	-0.435550
1.16667	40.776	-0.435763
1.16833	40.793	-0.436175
1.17000	40.810	-0.436757
1.17167	40.826	-0.437245
1.17333	40.843	-0.437890
1.17500	40.859	-0.438691
1.17667	40.876	-0.439455
1.17833	40.893	-0.440243
1.18000	40.909	-0.441065
1.18167	40.926	-0.441924
1.18333	40.943	-0.442509
1.18500	40.960	-0.442886
1.18667	40.977	-0.443168
1.18833	40.994	-0.443391
1.19000	41.010	-0.443477
1.19167	41.026	-0.443517
1.19333	41.042	-0.443541
1.19500	41.059	-0.443589
1.19667	41.075	-0.443607
1.19833	41.091	-0.443712
1.20000	41.108	-0.443958
1.20167	41.125	-0.444510
1.20333	41.140	-0.445275
1.20500	41.159	-0.445992
1.20667	41.174	-0.446720
1.20833	41.192	-0.447369
1.21000	41.209	-0.447948
1.21167	41.225	-0.448383
1.21333	41.243	-0.448667
1.21500	41.259	-0.448907
1.21667	41.274	-0.449158
1.21833	41.292	-0.449425
1.22000	41.308	-0.449887
1.22167	41.325	-0.450426
1.22333	41.342	-0.450934
1.22500	41.358	-0.451497
1.22667	41.373	-0.452006
1.22833	41.391	-0.452607
1.23000	41.408	-0.453022
1.23167	41.425	-0.453439
1.23333	41.440	-0.453723
1.23500	41.456	-0.453986
1.23667	41.475	-0.454327
1.23833	41.490	-0.454809
1.24000	41.507	-0.455352
1.24167	41.524	-0.455926
1.24333	41.542	-0.456511
1.24500	41.557	-0.456976
1.24667	41.575	-0.457475
1.24833	41.591	-0.457924
1.25000	41.607	-0.458404
1.25167	41.624	-0.458956
1.25333	41.641	-0.459494
1.25500	41.657	-0.460019
1.25667	41.673	-0.460675
1.25833	41.690	-0.461340
1.26000	41.706	-0.461992
1.26167	41.723	-0.462501
1.26333	41.741	-0.462819
1.26500	41.756	-0.463074
1.26667	41.773	-0.463306
1.26833	41.791	-0.463576
1.27000	41.808	-0.464083
1.27167	41.825	-0.464721
1.27333	41.841	-0.465403
1.27500	41.857	-0.466073
1.27667	41.874	-0.466682
1.27833	41.890	-0.467366
1.28000	41.906	-0.468105
1.28167	41.924	-0.468884
1.28333	41.940	-0.469724
1.28500	41.957	-0.470347
1.28667	41.974	-0.470710
1.28833	41.991	-0.471105
1.29000	42.007	-0.471581
1.29167	42.023	-0.472120
1.29333	42.040	-0.472554
1.29500	42.057	-0.472980
1.29667	42.073	-0.473511
1.29833	42.089	-0.473919
1.30000	42.107	-0.474423
1.30167	42.123	-0.475138
1.30333	42.140	-0.475739
1.30500	42.156	-0.476165
1.30667	42.172	-0.476462
1.30833	42.190	-0.476767
1.31000	42.207	-0.477185
1.31167	42.222	-0.477573
1.31333	42.239	-0.478016
1.31500	42.256	-0.478604
1.31667	42.272	-0.479057
1.31833	42.289	-0.479529
1.32000	42.306	-0.480015
1.32167	42.322	-0.480659
1.32333	42.340	-0.481285
1.32500	42.355	-0.481801
1.32667	42.373	-0.482232
1.32833	42.389	-0.482683
1.33000	42.406	-0.483067
1.33167	42.423	-0.483577
1.33333	42.440	-0.483994
1.33500	42.456	-0.484365
1.33667	42.473	-0.484774
1.33833	42.489	-0.485316
1.34000	42.505	-0.485760
1.34167	42.522	-0.486248
1.34333	42.540	-0.486560
1.34500	42.556	-0.486895
1.34667	42.572	-0.487108
1.34833	42.588	-0.487285
1.35000	42.606	-0.487479
1.35167	42.621	-0.487637
1.35333	42.639	-0.487894
1.35500	42.655	-0.488219
1.35667	42.672	-0.488531
1.35833	42.689	-0.488778
1.36000	42.705	-0.489072
1.36167	42.722	-0.489385
1.36333	42.740	-0.489767
1.36500	42.755	-0.489971
1.36667	42.773	-0.490094
1.36833	42.789	-0.490283
1.37000	42.805	-0.490422
1.37167	42.822	-0.490707
1.37333	42.839	-0.490985
1.37500	42.855	-0.491236
1.37667	42.872	-0.491466
1.37833	42.888	-0.491704
1.38000	42.905	-0.491881
1.38167	42.922	-0.492157
1.38333	42.939	-0.492351
1.38500	42.955	-0.492473
1.38667	42.973	-0.492625
1.38833	42.989	-0.492810
1.39000	43.005	-0.493195
1.39167	43.022	-0.493429
1.39333	43.039	-0.493654
1.39500	43.055	-0.493917
1.39667	43.071	-0.494097
1.39833	43.087	-0.494152
1.40000	43.104	-0.494228
1.40167	43.121	-0.494335
1.40333	43.136	-0.494437
1.40500	43.155	-0.494586
1.40667	43.171	-0.494760
1.40833	43.188	-0.495176
1.41000	43.205	-0.495530
1.41167	43.223	-0.495883
1.41333	43.238	-0.496279
1.41500	43.255	-0.496545
1.41667	43.271	-0.496749
1.41833	43.289	-0.496934
1.42000	43.305	-0.497156
1.42167	43.321	-0.497353
1.42333	43.338	-0.497445
1.42500	43.354	-0.497507
1.42667	43.371	-0.497585
1.42833	43.388	-0.497731
1.43000	43.404	-0.497893
1.43167	43.420	-0.498104
1.43333	43.437	-0.498428
1.43500	43.454	-0.498831
1.43667	43.470	-0.499191
1.43833	43.488	-0.499721
1.44000	43.504	-0.500057
1.44167	43.521	-0.500184
1.44333	43.538	-0.500240
1.44500	43.555	-0.500323
1.44667	43.571	-0.500429
1.44833	43.588	-0.500524
1.45000	43.604	-0.500622
1.45167	43.621	-0.500761
1.45333	43.639	-0.500923
1.45500	43.654	-0.501137
1.45667	43.671	-0.501471
1.45833	43.688	-0.501751
1.46000	43.704	-0.502032
1.46167	43.721	-0.502220
1.46333	43.739	-0.502407
1.46500	43.755	-0.502600
1.46667	43.771	-0.502808
1.46833	43.788	-0.502898
1.47000	43.804	-0.502996
1.47167	43.821	-0.503197
1.47333	43.838	-0.503386
1.47500	43.855	-0.503582
1.47667	43.871	-0.503654
1.47833	43.887	-0.503741
1.48000	43.905	-0.503866
1.48167	43.921	-0.503955
1.48333	43.938	-0.504012
1.48500	43.955	-0.504098
1.48667	43.971	-0.504158
1.48833	43.988	-0.504267
1.49000	44.005	-0.504326
1.49167	44.021	-0.504387
1.49333	44.037	-0.504439
1.49500	44.054	-0.504493
1.49667	44.071	-0.504549
1.49833	44.088	-0.504609
1.50000	44.104	-0.504664
1.50167	44.120	-0.504726
1.50333	44.138	-0.504814
1.50500	44.153	-0.504917
1.50667	44.172	-0.505059
1.50833	44.188	-0.505197
1.51000	44.205	-0.505339
1.51167	44.220	-0.505401
1.51333	44.237	-0.505459
1.51500	44.254	-0.505505
1.51667	44.271	-0.505580
1.51833	44.288	-0.505637
1.52000	44.303	-0.505718
1.52167	44.321	-0.505787
1.52333	44.337	-0.505887
1.52500	44.354	-0.505990
1.52667	44.370	-0.506139
1.52833	44.387	-0.506301
1.53000	44.404	-0.506372
1.53167	44.420	-0.506444
1.53333	44.437	-0.506517
1.53500	44.453	-0.506589
1.53667	44.470	-0.506711
1.53833	44.487	-0.506787
1.54000	44.504	-0.506864
1.54167	44.520	-0.506988
1.54333	44.537	-0.507065
1.54500	44.554	-0.507142
1.54667	44.571	-0.507213
1.54833	44.587	-0.507267
1.55000	44.604	-0.507325
1.55167	44.620	-0.507384
1.55333	44.636	-0.507443
1.55500	44.654	-0.507510
1.55667	44.670	-0.507581
1.55833	44.687	-0.507659
1.56000	44.704	-0.507738
1.56167	44.721	-0.507815
1.56333	44.738	-0.507942
1.56500	44.753	-0.508083
1.56667	44.771	-0.508240
1.56833	44.787	-0.508529
1.57000	44.804	-0.508892
1.57167	44.820	-0.509326
1.57333	44.836	-0.509689
1.57500	44.854	-0.509894
1.57667	44.870	-0.510041
1.57833	44.887	-0.510122
1.58000	44.904	-0.510247
1.58167	44.921	-0.510310
1.58333	44.937	-0.510369
1.58500	44.955	-0.510425
1.58667	44.970	-0.510478
1.58833	44.987	-0.510535
1.59000	45.004	-0.510594
1.59167	45.020	-0.510664
1.59333	45.037	-0.510741
1.59500	45.054	-0.510817
1.59667	45.071	-0.510893
1.59833	45.087	-0.510963
1.60000	45.103	-0.511023
1.60167	45.121	-0.511076
1.60333	45.137	-0.511130
1.60500	45.154	-0.511181
1.60667	45.170	-0.511220
1.60833	45.188	-0.511259
1.61000	45.204	-0.511303
1.61167	45.221	-0.511357
1.61333	45.237	-0.511427
1.61500	45.252	-0.511585
1.61667	45.270	-0.511808
1.61833	45.286	-0.512044
1.62000	45.303	-0.512178
1.62167	45.320	-0.512305
1.62333	45.336	-0.512383
1.62500	45.353	-0.512460
1.62667	45.370	-0.512539
1.62833	45.386	-0.512605
1.63000	45.403	-0.512671
1.63167	45.419	-0.512741
1.63333	45.436	-0.512819
1.63500	45.453	-0.512910
1.63667	45.470	-0.513008
1.63833	45.486	-0.513083
1.64000	45.502	-0.513148
1.64167	45.520	-0.513204
1.64333	45.536	-0.513254
1.64500	45.553	-0.513298
1.64667	45.571	-0.513338
1.64833	45.587	-0.513376
1.65000	45.604	-0.513414
1.65167	45.620	-0.513462
1.65333	45.637	-0.513524
1.65500	45.653	-0.513588
1.65667	45.670	-0.513652
1.65833	45.687	-0.513719
1.66000	45.703	-0.513791
1.66167	45.720	-0.513860
1.66333	45.737	-0.513931
1.66500	45.753	-0.514063
1.66667	45.770	-0.514257
1.66833	45.788	-0.514474
1.67000	45.804	-0.514690
1.67167	45.821	-0.514830
1.67333	45.837	-0.514909
1.67500	45.854	-0.514975
1.67667	45.871	-0.515032
1.67833	45.887	-0.515079
1.68000	45.904	-0.515119
1.68167	45.920	-0.515159
1.68333	45.938	-0.515201
1.68500	45.954	-0.515255
1.68667	45.971	-0.515324
1.68833	45.987	-0.515390
1.69000	46.005	-0.515458
1.69167	46.021	-0.515523
1.69333	46.037	-0.515590
1.69500	46.054	-0.515654
1.69667	46.071	-0.515709
1.69833	46.087	-0.515758
1.70000	46.104	-0.515805
1.70167	46.120	-0.515854
1.70333	46.138	-0.515903
1.70500	46.154	-0.515964
1.70667	46.172	-0.516032
1.70833	46.189	-0.516103
1.71000	46.205	-0.516170
1.71167	46.222	-0.516242
1.71333	46.239	-0.516312
1.71500	46.255	-0.516369
1.71667	46.272	-0.516420
1.71833	46.288	-0.516470
1.72000	46.306	-0.516522
1.72167	46.322	-0.516572
1.72333	46.338	-0.516611
1.72500	46.355	-0.516643
1.72667	46.371	-0.516681
1.72833	46.388	-0.516718
1.73000	46.404	-0.516761
1.73167	46.422	-0.516806
1.73333	46.438	-0.516849
1.73500	46.455	-0.516895
1.73667	46.472	-0.516953
1.73833	46.488	-0.517014
1.74000	46.504	-0.517072
1.74167	46.521	-0.517129
1.74333	46.536	-0.517174
1.74500	46.554	-0.517221
1.74667	46.570	-0.517267
1.74833	46.587	-0.517303
1.75000	46.603	-0.517335
1.75167	46.620	-0.517369
1.75333	46.637	-0.517398
1.75500	46.654	-0.517427
1.75667	46.671	-0.517455
1.75833	46.687	-0.517479
1.76000	46.703	-0.517514
1.76167	46.720	-0.517553
1.76333	46.737	-0.517603
1.76500	46.754	-0.517659
1.76667	46.770	-0.517721
1.76833	46.787	-0.517785
1.77000	46.804	-0.517840
1.77167	46.821	-0.517889
1.77333	46.837	-0.517939
1.77500	46.853	-0.517983
1.77667	46.870	-0.518016
1.77833	46.885	-0.518047
1.78000	46.903	-0.518078
1.78167	46.919	-0.518109
1.78333	46.936	-0.518153
1.78500	46.953	-0.518202
1.78667	46.970	-0.518247
1.78833	46.985	-0.518290
1.79000	47.002	-0.518330
1.79167	47.018	-0.518376
1.79333	47.037	-0.518428
1.79500	47.053	-0.518477
1.79667	47.071	-0.518530
1.79833	47.087	-0.518582
1.80000	47.104	-0.518642
1.80167	47.120	-0.518706
1.80333	47.138	-0.518769
1.80500	47.154	-0.518822
1.80667	47.170	-0.518870
1.80833	47.186	-0.518904
1.81000	47.203	-0.518936
1.81167	47.219	-0.518963
1.81333	47.237	-0.518978
1.81500	47.254	-0.518991
1.81667	47.271	-0.519005
1.81833	47.287	-0.519027
1.82000	47.304	-0.519060
1.82167	47.320	-0.519107
1.82333	47.337	-0.519160
1.82500	47.353	-0.519219
1.82667	47.370	-0.519275
1.82833	47.387	-0.519325
1.83000	47.404	-0.519378
1.83167	47.421	-0.519424
1.83333	47.439	-0.519462
1.83500	47.455	-0.519501
1.83667	47.472	-0.519542
1.83833	47.488	-0.519585
1.84000	47.505	-0.519631
1.84167	47.522	-0.519679
1.84333	47.539	-0.519725
1.84500	47.555	-0.519765
1.84667	47.572	-0.519797
1.84833	47.589	-0.519824
1.85000	47.605	-0.519849
1.85167	47.622	-0.519869
1.85333	47.638	-0.519900
1.85500	47.656	-0.519927
1.85667	47.672	-0.519953
1.85833	47.689	-0.519992
1.86000	47.705	-0.520038
1.86167	47.723	-0.520078
1.86333	47.738	-0.520119
1.86500	47.755	-0.520156
1.86667	47.772	-0.520185
1.86833	47.788	-0.520199
1.87000	47.804	-0.520207
1.87167	47.821	-0.520224
1.87333	47.838	-0.520247
1.87500	47.855	-0.520276
1.87667	47.872	-0.520313
1.87833	47.887	-0.520356
1.88000	47.904	-0.520404
1.88167	47.921	-0.520455
1.88333	47.937	-0.520494
1.88500	47.954	-0.520523
1.88667	47.971	-0.520531
1.88833	47.988	-0.520511
1.89000	48.005	-0.520476
1.89167	48.021	-0.520466
1.89333	48.038	-0.520473
1.89500	48.053	-0.520492
1.89667	48.071	-0.520512
1.89833	48.088	-0.520541
1.90000	48.105	-0.520576
1.90167	48.122	-0.520612
1.90333	48.138	-0.520650
1.90500	48.156	-0.520677
1.90667	48.171	-0.520693
1.90833	48.188	-0.520706
1.91000	48.205	-0.520715
1.91167	48.222	-0.520727
1.91333	48.238	-0.520743
1.91500	48.254	-0.520758
1.91667	48.271	-0.520767
1.91833	48.288	-0.520778
1.92000	48.305	-0.520795
1.92167	48.321	-0.520809
1.92333	48.337	-0.520835
1.92500	48.354	-0.520857
1.92667	48.372	-0.520883
1.92833	48.387	-0.520908
1.93000	48.405	-0.520939
1.93167	48.421	-0.520971
1.93333	48.438	-0.521002
1.93500	48.454	-0.521035
1.93667	48.472	-0.521069
1.93833	48.488	-0.521098
1.94000	48.504	-0.521133
1.94167	48.522	-0.521162
1.94333	48.538	-0.521176
1.94500	48.555	-0.521184
1.94667	48.571	-0.521184
1.94833	48.588	-0.521183
1.95000	48.605	-0.521188
1.95167	48.622	-0.521198
1.95333	48.638	-0.521214
1.95500	48.655	-0.521237
1.95667	48.672	-0.521270
1.95833	48.688	-0.521307
1.96000	48.704	-0.521341
1.96167	48.722	-0.521381
1.96333	48.738	-0.521413
1.96500	48.755	-0.521431
1.96667	48.772	-0.521451
1.96833	48.789	-0.521465
1.97000	48.806	-0.521472
1.97167	48.822	-0.521474
1.97333	48.839	-0.521483
1.97500	48.855	-0.521498
1.97667	48.872	-0.521515
1.97833	48.888	-0.521537
1.98000	48.905	-0.521562
1.98167	48.922	-0.521586
1.98333	48.937	-0.521613
1.98500	48.955	-0.521630
1.98667	48.972	-0.521646
1.98833	48.988	-0.521657
1.99000	49.005	-0.521664
1.99167	49.022	-0.521674
1.99333	49.038	-0.521677
1.99500	49.056	-0.521684
1.99667	49.073	-0.521690
1.99833	49.089	-0.521697
2.00000	49.106	-0.521691
2.00167	49.122	-0.521684
2.00333	49.139	-0.521676
2.00500	49.156	-0.521665
2.00667	49.174	-0.521662
2.00833	49.190	-0.521659
2.01000	49.205	-0.521662
2.01167	49.222	-0.521662
2.01333	49.238	-0.521683
2.01500	49.256	-0.521711
2.01667	49.272	-0.521745
2.01833	49.289	-0.521765
2.02000	49.305	-0.521771
2.02167	49.323	-0.521768
2.02333	49.339	-0.521760
2.02500	49.356	-0.521754
2.02667	49.373	-0.521749
2.02833	49.390	-0.521735
2.03000	49.406	-0.521714
2.03167	49.423	-0.521684
2.03333	49.439	-0.521677
2.03500	49.456	-0.521685
2.03667	49.472	-0.521696
2.03833	49.488	-0.521706
2.04000	49.505	-0.521721
2.04167	49.522	-0.521733
2.04333	49.538	-0.521753
2.04500	49.556	-0.521768
2.04667	49.572	-0.521774
2.04833	49.588	-0.521769
2.05000	49.605	-0.521750
2.05167	49.623	-0.521724
2.05333	49.639	-0.521706
2.05500	49.656	-0.521693
2.05667	49.673	-0.521688
2.05833	49.689	-0.521682
2.06000	49.706	-0.521676
2.06167	49.723	-0.521676
2.06333	49.740	-0.521687
2.06500	49.757	-0.521699
2.06667	49.772	-0.521711
2.06833	49.790	-0.521722
2.07000	49.806	-0.521730
2.07167	49.823	-0.521734
2.07333	49.840	-0.521739
2.07500	49.855	-0.521742
2.07667	49.873	-0.521732
2.07833	49.889	-0.521711
2.08000	49.907	-0.521688
2.08167	49.923	-0.521672
2.08333	49.940	-0.521661
2.08500	49.957	-0.521655
2.08667	49.973	-0.521656
2.08833	49.990	-0.521661
2.09000	50.006	-0.521666
2.09167	50.025	-0.521668
2.09333	50.040	-0.521672
2.09500	50.056	-0.521672
2.09667	50.073	-0.521674
2.09833	50.090	-0.521669
2.10000	50.107	-0.521666
2.10167	50.123	-0.521668
2.10333	50.140	-0.521674
2.10500	50.157	-0.521687
2.10667	50.173	-0.521700
2.10833	50.190	-0.521704
2.11000	50.207	-0.521704
2.11167	50.224	-0.521708
2.11333	50.241	-0.521717
2.11500	50.256	-0.521722
2.11667	50.273	-0.521719
2.11833	50.290	-0.521705
2.12000	50.307	-0.521695
2.12167	50.323	-0.521679
2.12333	50.340	-0.521662
2.12500	50.357	-0.521649
2.12667	50.373	-0.521619
2.12833	50.390	-0.521585
2.13000	50.407	-0.521545
2.13167	50.424	-0.521526
2.13333	50.440	-0.521509
2.13500	50.457	-0.521487
2.13667	50.474	-0.521461
2.13833	50.491	-0.521432
2.14000	50.507	-0.521379
2.14167	50.524	-0.521336
2.14333	50.541	-0.521309
2.14500	50.557	-0.521285
2.14667	50.573	-0.521258
2.14833	50.590	-0.521225
2.15000	50.606	-0.521200
2.15167	50.624	-0.521183
2.15333	50.640	-0.521165
2.15500	50.657	-0.521139
2.15667	50.673	-0.521115
2.15833	50.691	-0.521084
2.16000	50.706	-0.521049
2.16167	50.723	-0.520992
2.16333	50.740	-0.520920
2.16500	50.758	-0.520873
2.16667	50.774	-0.520813
2.16833	50.789	-0.520769
2.17000	50.807	-0.520731
2.17167	50.823	-0.520698
2.17333	50.841	-0.520664
2.17500	50.857	-0.520634
2.17667	50.874	-0.520609
2.17833	50.890	-0.520593
2.18000	50.907	-0.520586
2.18167	50.923	-0.520569
2.18333	50.941	-0.520556
2.18500	50.957	-0.520539
2.18667	50.974	-0.520520
2.18833	50.991	-0.520491
2.19000	51.007	-0.520462
2.19167	51.024	-0.520428
2.19333	51.040	-0.520385
2.19500	51.058	-0.520331
2.19667	51.074	-0.520268
2.19833	51.091	-0.520230
2.20000	51.107	-0.520191
2.20167	51.123	-0.520152
2.20333	51.140	-0.520116
2.20500	51.157	-0.520075
2.20667	51.174	-0.520025
2.20833	51.191	-0.519980
2.21000	51.207	-0.519938
2.21167	51.224	-0.519904
2.21333	51.239	-0.519870
2.21500	51.256	-0.519832
2.21667	51.274	-0.519789
2.21833	51.292	-0.519746
2.22000	51.307	-0.519698
2.22167	51.324	-0.519646
2.22333	51.341	-0.519469
2.22500	51.357	-0.519309
2.22667	51.374	-0.519169
2.22833	51.391	-0.519067
2.23000	51.408	-0.518947
2.23167	51.424	-0.518875
2.23333	51.442	-0.518829
2.23500	51.457	-0.518785
2.23667	51.474	-0.518747
2.23833	51.491	-0.518708
2.24000	51.509	-0.518663
2.24167	51.525	-0.518612
2.24333	51.542	-0.518571
2.24500	51.558	-0.518539
2.24667	51.576	-0.518510
2.24833	51.591	-0.518463
2.25000	51.608	-0.518401
2.25167	51.625	-0.518346
2.25333	51.641	-0.518297
2.25500	51.659	-0.518252
2.25667	51.674	-0.518205
2.25833	51.691	-0.518156
2.26000	51.707	-0.518107
2.26167	51.725	-0.518062
2.26333	51.742	-0.518024
2.26500	51.759	-0.517987
2.26667	51.775	-0.517941
2.26833	51.791	-0.517888
2.27000	51.809	-0.517829
2.27167	51.825	-0.517771
2.27333	51.842	-0.517680
2.27500	51.859	-0.517613
2.27667	51.875	-0.517485
2.27833	51.893	-0.517363
2.28000	51.908	-0.517082
2.28167	51.925	-0.516778
2.28333	51.941	-0.516418
2.28500	51.958	-0.516016
2.28667	51.975	-0.515710
2.28833	51.990	-0.515477
2.29000	52.008	-0.515287
2.29167	52.025	-0.515150
2.29333	52.041	-0.515040
2.29500	52.058	-0.514998
2.29667	52.075	-0.514968
2.29833	52.092	-0.514942
2.30000	52.109	-0.514910
2.30167	52.124	-0.514870
2.30333	52.142	-0.514831
2.30500	52.158	-0.514795
2.30667	52.174	-0.514752
2.30833	52.192	-0.514692
2.31000	52.209	-0.514582
2.31167	52.225	-0.514351
2.31333	52.242	-0.514194
2.31500	52.259	-0.514104
2.31667	52.276	-0.514039
2.31833	52.293	-0.513945
2.32000	52.309	-0.513849
2.32167	52.325	-0.513761
2.32333	52.343	-0.513691
2.32500	52.358	-0.513621
2.32667	52.376	-0.513552
2.32833	52.392	-0.513455
2.33000	52.409	-0.513349
2.33167	52.425	-0.513245
2.33333	52.443	-0.513152
2.33500	52.459	-0.513059
2.33667	52.476	-0.512971
2.33833	52.494	-0.512889
2.34000	52.510	-0.512801
2.34167	52.526	-0.512692
2.34333	52.542	-0.512532
2.34500	52.560	-0.512306
2.34667	52.576	-0.511880
2.34833	52.593	-0.511365
2.35000	52.609	-0.510957
2.35167	52.625	-0.510670
2.35333	52.642	-0.510461
2.35500	52.659	-0.510297
2.35667	52.676	-0.510210
2.35833	52.693	-0.510132
2.36000	52.710	-0.510058
2.36167	52.726	-0.509997
2.36333	52.742	-0.509938
2.36500	52.759	-0.509876
2.36667	52.776	-0.509800
2.36833	52.793	-0.509614
2.37000	52.810	-0.509452
2.37167	52.827	-0.509281
2.37333	52.843	-0.509173
2.37500	52.860	-0.509033
2.37667	52.877	-0.508818
2.37833	52.894	-0.508537
2.38000	52.910	-0.508366
2.38167	52.926	-0.508182
2.38333	52.943	-0.508010
2.38500	52.959	-0.507877
2.38667	52.976	-0.507666
2.38833	52.993	-0.507501
2.39000	53.009	-0.507287
2.39167	53.027	-0.507181
2.39333	53.044	-0.507097
2.39500	53.060	-0.507019
2.39667	53.077	-0.506937
2.39833	53.094	-0.506855
2.40000	53.110	-0.506656
2.40167	53.127	-0.506411
2.40333	53.143	-0.506047
2.40500	53.160	-0.505756
2.40667	53.177	-0.505501
2.40833	53.194	-0.505255
2.41000	53.210	-0.505029
2.41167	53.227	-0.504879
2.41333	53.245	-0.504789
2.41500	53.260	-0.504708
2.41667	53.276	-0.504625
2.41833	53.293	-0.504527
2.42000	53.310	-0.504442
2.42167	53.328	-0.504353
2.42333	53.345	-0.504264
2.42500	53.361	-0.504168
2.42667	53.378	-0.504022
2.42833	53.395	-0.503850
2.43000	53.411	-0.503634
2.43167	53.428	-0.503424
2.43333	53.444	-0.503237
2.43500	53.461	-0.503015
2.43667	53.477	-0.502720
2.43833	53.494	-0.502383
2.44000	53.511	-0.502184
2.44167	53.527	-0.501968
2.44333	53.543	-0.501804
2.44500	53.561	-0.501620
2.44667	53.577	-0.501422
2.44833	53.594	-0.501253
2.45000	53.610	-0.501163
2.45167	53.627	-0.501043
2.45333	53.644	-0.500954
2.45500	53.661	-0.500864
2.45667	53.678	-0.500739
2.45833	53.695	-0.500636
2.46000	53.711	-0.500493
2.46167	53.729	-0.500392
2.46333	53.744	-0.500202
2.46500	53.761	-0.499967
2.46667	53.778	-0.499798
2.46833	53.795	-0.499699
2.47000	53.811	-0.499610
2.47167	53.828	-0.499514
2.47333	53.845	-0.499279
2.47500	53.862	-0.498902
2.47667	53.878	-0.498480
2.47833	53.895	-0.498143
2.48000	53.911	-0.497982
2.48167	53.928	-0.497868
2.48333	53.944	-0.497771
2.48500	53.961	-0.497622
2.48667	53.978	-0.497549
2.48833	53.994	-0.497479
2.49000	54.012	-0.497413
2.49167	54.027	-0.497340
2.49333	54.044	-0.497254
2.49500	54.062	-0.497109
2.49667	54.078	-0.496758
2.49833	54.095	-0.496512
2.50000	54.112	-0.496239
2.50167	54.129	-0.495929
2.50333	54.145	-0.495697
2.50500	54.161	-0.495562
2.50667	54.178	-0.495428
2.50833	54.195	-0.495259
2.51000	54.212	-0.495013
2.51167	54.228	-0.494753
2.51333	54.246	-0.494401
2.51500	54.262	-0.494002
2.51667	54.278	-0.493705
2.51833	54.295	-0.493510
2.52000	54.312	-0.493375
2.52167	54.328	-0.493286
2.52333	54.344	-0.493211
2.52500	54.361	-0.493135
2.52667	54.378	-0.493062
2.52833	54.395	-0.492960
2.53000	54.412	-0.492873
2.53167	54.428	-0.492779
2.53333	54.445	-0.492599
2.53500	54.463	-0.492411
2.53667	54.478	-0.492173
2.53833	54.495	-0.491923
2.54000	54.512	-0.491790
2.54167	54.528	-0.491692
2.54333	54.545	-0.491581
2.54500	54.561	-0.491486
2.54667	54.579	-0.491385
2.54833	54.596	-0.491241
2.55000	54.612	-0.491116
2.55167	54.628	-0.491020
2.55333	54.645	-0.490926
2.55500	54.662	-0.490836
2.55667	54.678	-0.490742
2.55833	54.695	-0.490649
2.56000	54.713	-0.490560
2.56167	54.729	-0.490470
2.56333	54.746	-0.490374
2.56500	54.762	-0.490274
2.56667	54.779	-0.490008
2.56833	54.796	-0.489716
2.57000	54.812	-0.489400
2.57167	54.829	-0.489093
2.57333	54.846	-0.488893
2.57500	54.862	-0.488713
2.57667	54.878	-0.488520
2.57833	54.896	-0.488412
2.58000	54.912	-0.488279
2.58167	54.930	-0.488180
2.58333	54.947	-0.488080
2.58500	54.963	-0.487978
2.58667	54.981	-0.487880
2.58833	54.997	-0.487781
2.59000	55.014	-0.487653
2.59167	55.029	-0.487549
2.59333	55.046	-0.487453
2.59500	55.063	-0.487357
2.59667	55.080	-0.487259
2.59833	55.096	-0.487154
2.60000	55.112	-0.487039
2.60167	55.130	-0.486819
2.60333	55.146	-0.486570
2.60500	55.163	-0.486386
2.60667	55.179	-0.486134
2.60833	55.197	-0.485892
2.61000	55.213	-0.485710
2.61167	55.230	-0.485608
2.61333	55.247	-0.485481
2.61500	55.263	-0.485395
2.61667	55.281	-0.485280
2.61833	55.296	-0.485161
2.62000	55.314	-0.485070
2.62167	55.330	-0.484976
2.62333	55.347	-0.484874
2.62500	55.363	-0.484704
2.62667	55.381	-0.484599
2.62833	55.397	-0.484477
2.63000	55.414	-0.484286
2.63167	55.430	-0.484092
2.63333	55.447	-0.483980
2.63500	55.464	-0.483759
2.63667	55.480	-0.483508
2.63833	55.497	-0.483274
2.64000	55.513	-0.483124
2.64167	55.529	-0.482953
2.64333	55.547	-0.482770
2.64500	55.564	-0.482657
2.64667	55.580	-0.482553
2.64833	55.597	-0.482447
2.65000	55.613	-0.482343
2.65167	55.630	-0.482242
2.65333	55.647	-0.482141
2.65500	55.663	-0.482034
2.65667	55.680	-0.481928
2.65833	55.697	-0.481824
2.66000	55.713	-0.481715
2.66167	55.730	-0.481566
2.66333	55.746	-0.481416
2.66500	55.763	-0.481268
2.66667	55.780	-0.481142
2.66833	55.796	-0.480975
2.67000	55.813	-0.480808
2.67167	55.830	-0.480582
2.67333	55.846	-0.480403
2.67500	55.863	-0.480296
2.67667	55.881	-0.480184
2.67833	55.898	-0.480078
2.68000	55.915	-0.479969
2.68167	55.931	-0.479851
2.68333	55.948	-0.479746
2.68500	55.964	-0.479642
2.68667	55.981	-0.479522
2.68833	55.997	-0.479416
2.69000	56.013	-0.479305
2.69167	56.031	-0.479199
2.69333	56.047	-0.479096
2.69500	56.064	-0.478949
2.69667	56.080	-0.478784
2.69833	56.098	-0.478622
2.70000	56.114	-0.478508
2.70167	56.130	-0.478344
2.70333	56.146	-0.478145
2.70500	56.164	-0.478031
2.70667	56.180	-0.477899
2.70833	56.197	-0.477716
2.71000	56.214	-0.477569
2.71167	56.231	-0.477460
2.71333	56.247	-0.477346
2.71500	56.264	-0.477229
2.71667	56.281	-0.477117
2.71833	56.298	-0.477011
2.72000	56.314	-0.476901
2.72167	56.331	-0.476789
2.72333	56.347	-0.476683
2.72500	56.364	-0.476583
2.72667	56.380	-0.476472
2.72833	56.396	-0.476359
2.73000	56.414	-0.476253
2.73167	56.430	-0.476150
2.73333	56.446	-0.476042
2.73500	56.463	-0.475929
2.73667	56.481	-0.475789
2.73833	56.498	-0.475588
2.74000	56.514	-0.475365
2.74167	56.531	-0.475112
2.74333	56.549	-0.474998
2.74500	56.565	-0.474891
2.74667	56.581	-0.474782
2.74833	56.599	-0.474687
2.75000	56.615	-0.474590
2.75167	56.631	-0.474483
2.75333	56.647	-0.474382
2.75500	56.666	-0.474280
2.75667	56.681	-0.474165
2.75833	56.698	-0.474050
2.76000	56.714	-0.473915
2.76167	56.732	-0.473798
2.76333	56.748	-0.473690
2.76500	56.765	-0.473579
2.76667	56.782	-0.473466
2.76833	56.798	-0.473345
2.77000	56.814	-0.473083
2.77167	56.831	-0.472802
2.77333	56.848	-0.472591
2.77500	56.863	-0.472418
2.77667	56.881	-0.472270
2.77833	56.897	-0.472148
2.78000	56.914	-0.472032
2.78167	56.931	-0.471923
2.78333	56.947	-0.471792
2.78500	56.965	-0.471679
2.78667	56.980	-0.471562
2.78833	56.997	-0.471383
2.79000	57.014	-0.471070
2.79167	57.031	-0.470816
2.79333	57.048	-0.470566
2.79500	57.064	-0.470220
2.79667	57.080	-0.470022
2.79833	57.097	-0.469905
2.80000	57.114	-0.469788
2.80167	57.131	-0.469622
2.80333	57.148	-0.469481
2.80500	57.164	-0.469380
2.80667	57.181	-0.469283
2.80833	57.198	-0.469180
2.81000	57.214	-0.469072
2.81167	57.231	-0.468965
2.81333	57.247	-0.468816
2.81500	57.264	-0.468587
2.81667	57.281	-0.468155
2.81833	57.297	-0.467730
2.82000	57.315	-0.467200
2.82167	57.331	-0.466737
2.82333	57.347	-0.466229
2.82500	57.364	-0.465597
2.82667	57.381	-0.465223
2.82833	57.398	-0.465036
2.83000	57.414	-0.464791
2.83167	57.431	-0.464705
2.83333	57.448	-0.464631
2.83500	57.465	-0.464565
2.83667	57.481	-0.464495
2.83833	57.498	-0.464413
2.84000	57.515	-0.464330
2.84167	57.531	-0.464236
2.84333	57.548	-0.463974
2.84500	57.564	-0.463572
2.84667	57.581	-0.463186
2.84833	57.597	-0.462782
2.85000	57.615	-0.462459
2.85167	57.632	-0.462291
2.85333	57.649	-0.462199
2.85500	57.665	-0.462106
2.85667	57.682	-0.462016
2.85833	57.698	-0.461926
2.86000	57.714	-0.461832
2.86167	57.732	-0.461716
2.86333	57.749	-0.461517
2.86500	57.764	-0.461254
2.86667	57.781	-0.461073
2.86833	57.798	-0.460866
2.87000	57.814	-0.460623
2.87167	57.831	-0.460482
2.87333	57.848	-0.460387
2.87500	57.864	-0.460301
2.87667	57.882	-0.460173
2.87833	57.897	-0.460073
2.88000	57.914	-0.459944
2.88167	57.931	-0.459798
2.88333	57.947	-0.459657
2.88500	57.964	-0.459533
2.88667	57.981	-0.459291
2.88833	57.997	-0.458974
2.89000	58.014	-0.458627
2.89167	58.031	-0.458433
2.89333	58.048	-0.458331
2.89500	58.064	-0.458200
2.89667	58.082	-0.457974
2.89833	58.097	-0.457732
2.90000	58.115	-0.457474
2.90167	58.131	-0.457340
2.90333	58.149	-0.457233
2.90500	58.164	-0.457105
2.90667	58.181	-0.456967
2.90833	58.197	-0.456710
2.91000	58.215	-0.456518
2.91167	58.232	-0.456393
2.91333	58.247	-0.456251
2.91500	58.265	-0.456108
2.91667	58.282	-0.455926
2.91833	58.298	-0.455722
2.92000	58.315	-0.455618
2.92167	58.332	-0.455521
2.92333	58.348	-0.455400
2.92500	58.364	-0.455264
2.92667	58.382	-0.455169
2.92833	58.399	-0.455068
2.93000	58.415	-0.454967
2.93167	58.431	-0.454862
2.93333	58.448	-0.454705
2.93500	58.464	-0.454483
2.93667	58.481	-0.454059
2.93833	58.498	-0.453651
2.94000	58.515	-0.453261
2.94167	58.532	-0.452978
2.94333	58.548	-0.452762
2.94500	58.565	-0.452660
2.94667	58.582	-0.452561
2.94833	58.598	-0.452416
2.95000	58.615	-0.452265
2.95167	58.631	-0.452150
2.95333	58.649	-0.452022
2.95500	58.664	-0.451929
2.95667	58.682	-0.451833
2.95833	58.698	-0.451731
2.96000	58.715	-0.451628
2.96167	58.732	-0.451509
2.96333	58.748	-0.451355
2.96500	58.765	-0.451076
2.96667	58.781	-0.450880
2.96833	58.798	-0.450679
2.97000	58.815	-0.450473
2.97167	58.831	-0.450248
2.97333	58.847	-0.450146
2.97500	58.865	-0.450013
2.97667	58.881	-0.449876
2.97833	58.898	-0.449732
2.98000	58.915	-0.449625
2.98167	58.932	-0.449391
2.98333	58.948	-0.449177
2.98500	58.965	-0.448960
2.98667	58.982	-0.448751
2.98833	58.998	-0.448562
2.99000	59.014	-0.448408
2.99167	59.031	-0.448307
2.99333	59.047	-0.448157
2.99500	59.065	-0.448068
2.99667	59.081	-0.447982
2.99833	59.098	-0.447899
3.00000	59.114	-0.447809
3.00167	59.130	-0.447721
3.00333	59.148	-0.447624
3.00500	59.165	-0.447528
3.00667	59.182	-0.447402
3.00833	59.199	-0.447164
3.01000	59.214	-0.447019
3.01167	59.231	-0.446770
3.01333	59.247	-0.446652
3.01500	59.264	-0.446546
3.01667	59.281	-0.446440
3.01833	59.298	-0.446334
3.02000	59.314	-0.446231
3.02167	59.332	-0.446087
3.02333	59.347	-0.445987
3.02500	59.363	-0.445884
3.02667	59.382	-0.445783
3.02833	59.398	-0.445675
3.03000	59.414	-0.445423
3.03167	59.431	-0.445152
3.03333	59.449	-0.444944
3.03500	59.465	-0.444724
3.03667	59.481	-0.444564
3.03833	59.499	-0.444455
3.04000	59.514	-0.444339
3.04167	59.531	-0.444234
3.04333	59.548	-0.444112
3.04500	59.565	-0.444022
3.04667	59.582	-0.443923
3.04833	59.599	-0.443819
3.05000	59.615	-0.443709
3.05167	59.631	-0.443543
3.05333	59.648	-0.443290
3.05500	59.664	-0.443050
3.05667	59.681	-0.442906
3.05833	59.698	-0.442760
3.06000	59.714	-0.442653
3.06167	59.731	-0.442544
3.06333	59.748	-0.442432
3.06500	59.765	-0.442321
3.06667	59.782	-0.442211
3.06833	59.799	-0.442102
3.07000	59.816	-0.441915
3.07167	59.832	-0.441786
3.07333	59.850	-0.441676
3.07500	59.865	-0.441568
3.07667	59.882	-0.441453
3.07833	59.898	-0.441345
3.08000	59.915	-0.441189
3.08167	59.932	-0.441030
3.08333	59.947	-0.440889
3.08500	59.965	-0.440779
3.08667	59.981	-0.440673
3.08833	59.998	-0.440568
3.09000	60.015	-0.440465
3.09167	60.032	-0.440363
3.09333	60.049	-0.440262
3.09500	60.065	-0.440158
3.09667	60.082	-0.440050
3.09833	60.098	-0.439913
3.10000	60.115	-0.439732
3.10167	60.132	-0.439396
3.10333	60.148	-0.438967
3.10500	60.165	-0.438705
3.10667	60.182	-0.438534
3.10833	60.198	-0.438352
3.11000	60.215	-0.438241
3.11167	60.231	-0.438135
3.11333	60.249	-0.438033
3.11500	60.266	-0.437930
3.11667	60.282	-0.437833
3.11833	60.299	-0.437740
3.12000	60.316	-0.437649
3.12167	60.333	-0.437550
3.12333	60.349	-0.437453
3.12500	60.366	-0.437359
3.12667	60.381	-0.437256
3.12833	60.398	-0.437152
3.13000	60.415	-0.437052
3.13167	60.432	-0.436949
3.13333	60.448	-0.436848
3.13500	60.465	-0.436745
3.13667	60.482	-0.436638
3.13833	60.499	-0.436534
3.14000	60.516	-0.436422
3.14167	60.532	-0.436316
3.14333	60.549	-0.436212
3.14500	60.565	-0.436102
3.14667	60.583	-0.435911
3.14833	60.599	-0.435680
3.15000	60.616	-0.435480
3.15167	60.632	-0.435335
3.15333	60.649	-0.435222
3.15500	60.667	-0.435108
3.15667	60.682	-0.434933
3.15833	60.699	-0.434809
3.16000	60.716	-0.434696
3.16167	60.732	-0.434589
3.16333	60.749	-0.434479
3.16500	60.765	-0.434364
3.16667	60.781	-0.434258
3.16833	60.799	-0.434148
3.17000	60.815	-0.434052
3.17167	60.831	-0.433957
3.17333	60.848	-0.433870
3.17500	60.866	-0.433770
3.17667	60.882	-0.433679
3.17833	60.899	-0.433586
3.18000	60.915	-0.433486
3.18167	60.931	-0.433378
3.18333	60.949	-0.433244
3.18500	60.965	-0.433132
3.18667	60.983	-0.432998
3.18833	60.999	-0.432815
3.19000	61.015	-0.432672
3.19167	61.032	-0.432549
3.19333	61.049	-0.432436
3.19500	61.066	-0.432338
3.19667	61.082	-0.432244
3.19833	61.099	-0.432146
3.20000	61.116	-0.432050
3.20167	61.132	-0.431958
3.20333	61.148	-0.431868
3.20500	61.166	-0.431774
3.20667	61.182	-0.431668
3.20833	61.199	-0.431523
3.21000	61.215	-0.431263
3.21167	61.232	-0.430990
3.21333	61.249	-0.430833
3.21500	61.266	-0.430678
3.21667	61.282	-0.430566
3.21833	61.299	-0.430468
3.22000	61.316	-0.430380
3.22167	61.332	-0.430297
3.22333	61.349	-0.430216
3.22500	61.366	-0.430138
3.22667	61.382	-0.430054
3.22833	61.399	-0.429964
3.23000	61.416	-0.429869
3.23167	61.432	-0.429773
3.23333	61.449	-0.429668
3.23500	61.465	-0.429509
3.23667	61.483	-0.429350
3.23833	61.499	-0.429244
3.24000	61.516	-0.429145
3.24167	61.532	-0.429058
3.24333	61.548	-0.428977
3.24500	61.565	-0.428896
3.24667	61.582	-0.428813
3.24833	61.599	-0.428727
3.25000	61.615	-0.428641
3.25167	61.632	-0.428550
3.25333	61.649	-0.428452
3.25500	61.666	-0.428350
3.25667	61.683	-0.428258
3.25833	61.699	-0.428168
3.26000	61.716	-0.428079
3.26167	61.732	-0.427984
3.26333	61.749	-0.427884
3.26500	61.766	-0.427778
3.26667	61.783	-0.427671
3.26833	61.800	-0.427567
3.27000	61.816	-0.427428
3.27167	61.833	-0.427262
3.27333	61.849	-0.427155
3.27500	61.867	-0.427052
3.27667	61.883	-0.426957
3.27833	61.899	-0.426864
3.28000	61.916	-0.426768
3.28167	61.932	-0.426668
3.28333	61.948	-0.426577
3.28500	61.966	-0.426491
3.28667	61.983	-0.426401
3.28833	61.999	-0.426309
3.29000	62.017	-0.426223
3.29167	62.033	-0.426143
3.29333	62.049	-0.426068
3.29500	62.066	-0.425999
3.29667	62.083	-0.425924
3.29833	62.100	-0.425848
3.30000	62.117	-0.425771
3.30167	62.133	-0.425694
3.30333	62.149	-0.425613
3.30500	62.167	-0.425524
3.30667	62.183	-0.425432
3.30833	62.199	-0.425335
3.31000	62.216	-0.425255
3.31167	62.232	-0.425174
3.31333	62.249	-0.425100
3.31500	62.265	-0.425028
3.31667	62.281	-0.424951
3.31833	62.298	-0.424876
3.32000	62.314	-0.424800
3.32167	62.331	-0.424715
3.32333	62.348	-0.424636
3.32500	62.364	-0.424552
3.32667	62.381	-0.424462
3.32833	62.399	-0.424382
3.33000	62.415	-0.424300
3.33167	62.432	-0.424222
3.33333	62.448	-0.424151
3.33500	62.465	-0.424080
3.33667	62.481	-0.424016
3.33833	62.499	-0.423961
3.34000	62.515	-0.423905
3.34167	62.531	-0.423860
3.34333	62.548	-0.423816
3.34500	62.565	-0.423769
3.34667	62.581	-0.423717
3.34833	62.597	-0.423666
3.35000	62.615	-0.423611
3.35167	62.631	-0.423552
3.35333	62.649	-0.423484
3.35500	62.665	-0.423410
3.35667	62.682	-0.423345
3.35833	62.699	-0.423287
3.36000	62.715	-0.423246
3.36167	62.731	-0.423209
3.36333	62.749	-0.423166
3.36500	62.766	-0.423117
3.36667	62.782	-0.423073
3.36833	62.799	-0.423034
3.37000	62.815	-0.422997
3.37167	62.832	-0.422949
3.37333	62.848	-0.422897
3.37500	62.865	-0.422849
3.37667	62.882	-0.422813
3.37833	62.900	-0.422777
3.38000	62.915	-0.422743
3.38167	62.931	-0.422708
3.38333	62.948	-0.422667
3.38500	62.965	-0.422623
3.38667	62.982	-0.422585
3.38833	62.998	-0.422554
3.39000	63.016	-0.422512
3.39167	63.032	-0.422477
3.39333	63.049	-0.422444
3.39500	63.066	-0.422415
3.39667	63.083	-0.422379
3.39833	63.099	-0.422348
3.40000	63.115	-0.422326
3.40167	63.132	-0.422303
3.40333	63.148	-0.422277
3.40500	63.165	-0.422247
3.40667	63.182	-0.422224
3.40833	63.198	-0.422194
3.41000	63.216	-0.422172
3.41167	63.232	-0.422147
3.41333	63.249	-0.422121
3.41500	63.265	-0.422097
3.41667	63.282	-0.422071
3.41833	63.299	-0.422052
3.42000	63.315	-0.422024
3.42167	63.333	-0.421989
3.42333	63.349	-0.421947
3.42500	63.366	-0.421910
3.42667	63.382	-0.421876
3.42833	63.399	-0.421835
3.43000	63.415	-0.421800
3.43167	63.432	-0.421774
3.43333	63.449	-0.421752
3.43500	63.466	-0.421739
3.43667	63.482	-0.421737
3.43833	63.500	-0.421749
3.44000	63.516	-0.421751
3.44167	63.532	-0.421757
3.44333	63.551	-0.421768
3.44500	63.566	-0.421780
3.44667	63.583	-0.421770
3.44833	63.599	-0.421750
3.45000	63.616	-0.421726
3.45167	63.632	-0.421692
3.45333	63.649	-0.421663
3.45500	63.666	-0.421643
3.45667	63.682	-0.421621
3.45833	63.699	-0.421606
3.46000	63.715	-0.421600
3.46167	63.732	-0.421614
3.46333	63.749	-0.421687
3.46500	63.765	-0.421743
3.46667	63.783	-0.421761
3.46833	63.800	-0.421772
3.47000	63.816	-0.421777
3.47167	63.833	-0.421779
3.47333	63.850	-0.421785
3.47500	63.866	-0.421788
3.47667	63.883	-0.421787
3.47833	63.899	-0.421774
3.48000	63.915	-0.421768
3.48167	63.932	-0.421764
3.48333	63.949	-0.421767
3.48500	63.964	-0.421774
3.48667	63.982	-0.421786
3.48833	63.999	-0.421804
3.49000	64.016	-0.421877
3.49167	64.033	-0.421985
3.49333	64.051	-0.422082
3.49500	64.066	-0.422182
3.49667	64.083	-0.422258
3.49833	64.099	-0.422354
3.50000	64.116	-0.422389
3.50167	64.132	-0.422416
3.50333	64.148	-0.422446
3.50500	64.165	-0.422473
3.50667	64.181	-0.422501
3.50833	64.199	-0.422571
3.51000	64.216	-0.422601
3.51167	64.233	-0.422629
3.51333	64.248	-0.422663
3.51500	64.265	-0.422690
3.51667	64.283	-0.422721
3.51833	64.298	-0.422750
3.52000	64.316	-0.422799
3.52167	64.332	-0.422837
3.52333	64.349	-0.422898
3.52500	64.365	-0.422952
3.52667	64.382	-0.423022
3.52833	64.399	-0.423070
3.53000	64.416	-0.423112
3.53167	64.432	-0.423151
3.53333	64.449	-0.423186
3.53500	64.465	-0.423215
3.53667	64.483	-0.423251
3.53833	64.499	-0.423296
3.54000	64.516	-0.423366
3.54167	64.532	-0.423493
3.54333	64.549	-0.423629
3.54500	64.566	-0.423843
3.54667	64.582	-0.424153
3.54833	64.599	-0.424542
3.55000	64.615	-0.425029
3.55167	64.632	-0.425423
3.55333	64.649	-0.425620
3.55500	64.666	-0.425923
3.55667	64.682	-0.426211
3.55833	64.699	-0.426311
3.56000	64.715	-0.426436
3.56167	64.732	-0.426524
3.56333	64.749	-0.426569
3.56500	64.765	-0.426619
3.56667	64.782	-0.426706
3.56833	64.799	-0.426752
3.57000	64.815	-0.426801
3.57167	64.832	-0.426875
3.57333	64.849	-0.427163
3.57500	64.866	-0.427525
3.57667	64.883	-0.427885
3.57833	64.899	-0.428088
3.58000	64.916	-0.428178
3.58167	64.933	-0.428234
3.58333	64.949	-0.428345
3.58500	64.966	-0.428409
3.58667	64.982	-0.428482
3.58833	64.999	-0.428538
3.59000	65.016	-0.428594
3.59167	65.032	-0.428653
3.59333	65.049	-0.428712
3.59500	65.066	-0.428771
3.59667	65.082	-0.428845
3.59833	65.099	-0.428970
3.60000	65.115	-0.429067
3.60167	65.133	-0.429207
3.60333	65.149	-0.429372
3.60500	65.166	-0.429483
3.60667	65.182	-0.429569
3.60833	65.199	-0.429634
3.61000	65.216	-0.429694
3.61167	65.232	-0.429758
3.61333	65.249	-0.429842
3.61500	65.266	-0.430031
3.61667	65.283	-0.430368
3.61833	65.299	-0.430913
3.62000	65.316	-0.431681
3.62167	65.333	-0.432839
3.62333	65.349	-0.433818
3.62500	65.366	-0.434304
3.62667	65.383	-0.434734
3.62833	65.399	-0.434987
3.63000	65.416	-0.435147
3.63167	65.432	-0.435235
3.63333	65.449	-0.435292
3.63500	65.466	-0.435428
3.63667	65.482	-0.435588
3.63833	65.499	-0.435642
3.64000	65.516	-0.435697
3.64167	65.532	-0.435753
3.64333	65.549	-0.435808
3.64500	65.566	-0.435903
3.64667	65.582	-0.436003
3.64833	65.599	-0.436161
3.65000	65.616	-0.436315
3.65167	65.632	-0.436466
3.65333	65.650	-0.436592
3.65500	65.667	-0.436698
3.65667	65.683	-0.436815
3.65833	65.699	-0.436943
3.66000	65.716	-0.437160
3.66167	65.733	-0.437518
3.66333	65.749	-0.437978
3.66500	65.765	-0.438639
3.66667	65.782	-0.439370
3.66833	65.799	-0.440166
3.67000	65.816	-0.440749
3.67167	65.832	-0.441151
3.67333	65.849	-0.441469
3.67500	65.866	-0.441575
3.67667	65.882	-0.441641
3.67833	65.899	-0.441700
3.68000	65.916	-0.441793
3.68167	65.933	-0.441957
3.68333	65.949	-0.442203
3.68500	65.966	-0.442464
3.68667	65.982	-0.442721
3.68833	65.999	-0.442977
3.69000	66.016	-0.443158
3.69167	66.032	-0.443397
3.69333	66.050	-0.443487
3.69500	66.066	-0.443559
3.69667	66.083	-0.443625
3.69833	66.099	-0.443711
3.70000	66.115	-0.443957
3.70167	66.132	-0.444252
3.70333	66.150	-0.444636
3.70500	66.165	-0.445072
3.70667	66.182	-0.445578
3.70833	66.199	-0.445955
3.71000	66.215	-0.446271
3.71167	66.232	-0.446426
3.71333	66.249	-0.446566
3.71500	66.266	-0.446648
3.71667	66.283	-0.446751
3.71833	66.299	-0.446880
3.72000	66.315	-0.447203
3.72167	66.333	-0.447583
3.72333	66.348	-0.447954
3.72500	66.365	-0.448268
3.72667	66.382	-0.448502
3.72833	66.399	-0.448734
3.73000	66.417	-0.448864
3.73167	66.432	-0.448953
3.73333	66.448	-0.449061
3.73500	66.465	-0.449240
3.73667	66.482	-0.449439
3.73833	66.499	-0.449635
3.74000	66.515	-0.449856
3.74167	66.532	-0.450080
3.74333	66.548	-0.450310
3.74500	66.566	-0.450610
3.74667	66.583	-0.451146
3.74833	66.599	-0.451652
3.75000	66.616	-0.452148
3.75167	66.633	-0.452810
3.75333	66.649	-0.453648
3.75500	66.666	-0.454385
3.75667	66.682	-0.455024
3.75833	66.700	-0.455511
3.76000	66.716	-0.455856
3.76167	66.733	-0.455992
3.76333	66.749	-0.456121
3.76500	66.765	-0.456294
3.76667	66.783	-0.456408
3.76833	66.799	-0.456570
3.77000	66.816	-0.456681
3.77167	66.833	-0.456874
3.77333	66.849	-0.456960
3.77500	66.866	-0.457053
3.77667	66.883	-0.457271
3.77833	66.900	-0.457421
3.78000	66.916	-0.457503
3.78167	66.932	-0.457612
3.78333	66.948	-0.457746
3.78500	66.966	-0.457874
3.78667	66.982	-0.458034
3.78833	66.999	-0.458147
3.79000	67.015	-0.458255
3.79167	67.033	-0.458363
3.79333	67.049	-0.458531
3.79500	67.066	-0.458868
3.79667	67.083	-0.459386
3.79833	67.099	-0.459962
3.80000	67.116	-0.460586
3.80167	67.132	-0.461437
3.80333	67.149	-0.462113
3.80500	67.166	-0.462646
3.80667	67.183	-0.462992
3.80833	67.199	-0.463158
3.81000	67.216	-0.463243
3.81167	67.234	-0.463338
3.81333	67.250	-0.463484
3.81500	67.266	-0.463633
3.81667	67.283	-0.463796
3.81833	67.298	-0.463933
3.82000	67.315	-0.464064
3.82167	67.333	-0.464195
3.82333	67.349	-0.464327
3.82500	67.364	-0.464422
3.82667	67.383	-0.464530
3.82833	67.399	-0.464673
3.83000	67.416	-0.464891
3.83167	67.433	-0.465214
3.83333	67.450	-0.465639
3.83500	67.467	-0.466252
3.83667	67.483	-0.467059
3.83833	67.499	-0.467804
3.84000	67.517	-0.468613
3.84167	67.533	-0.469122
3.84333	67.549	-0.469369
3.84500	67.566	-0.469468
3.84667	67.583	-0.469549
3.84833	67.600	-0.469834
3.85000	67.615	-0.469894
3.85167	67.633	-0.470072
3.85333	67.649	-0.470189
3.85500	67.666	-0.470309
3.85667	67.682	-0.470368
3.85833	67.699	-0.470461
3.86000	67.716	-0.470600
3.86167	67.732	-0.470738
3.86333	67.749	-0.470938
3.86500	67.766	-0.471315
3.86667	67.783	-0.471833
3.86833	67.800	-0.472641
3.87000	67.816	-0.473651
3.87167	67.833	-0.474472
3.87333	67.850	-0.475034
3.87500	67.866	-0.475480
3.87667	67.883	-0.475749
3.87833	67.900	-0.476020
3.88000	67.916	-0.476201
3.88167	67.933	-0.476412
3.88333	67.949	-0.476584
3.88500	67.966	-0.476779
3.88667	67.983	-0.476961
3.88833	67.999	-0.477185
3.89000	68.016	-0.477351
3.89167	68.033	-0.477486
3.89333	68.049	-0.477551
3.89500	68.066	-0.477685
3.89667	68.082	-0.477741
3.89833	68.099	-0.477801
3.90000	68.116	-0.477863
3.90167	68.132	-0.477971
3.90333	68.149	-0.478128
3.90500	68.166	-0.478365
3.90667	68.183	-0.478784
3.90833	68.201	-0.479252
3.91000	68.217	-0.479736
3.91167	68.233	-0.480222
3.91333	68.249	-0.480557
3.91500	68.266	-0.480753
3.91667	68.283	-0.480995
3.91833	68.299	-0.481250
3.92000	68.316	-0.481523
3.92167	68.333	-0.481665
3.92333	68.349	-0.481782
3.92500	68.367	-0.481879
3.92667	68.383	-0.481943
3.92833	68.399	-0.482005
3.93000	68.416	-0.482091
3.93167	68.432	-0.482263
3.93333	68.450	-0.482418
3.93500	68.467	-0.482476
3.93667	68.483	-0.482533
3.93833	68.500	-0.482597
3.94000	68.517	-0.482748
3.94167	68.534	-0.483003
3.94333	68.550	-0.483357
3.94500	68.566	-0.483821
3.94667	68.583	-0.484369
3.94833	68.600	-0.484585
3.95000	68.616	-0.484714
3.95167	68.632	-0.484926
3.95333	68.649	-0.485036
3.95500	68.666	-0.485210
3.95667	68.682	-0.485320
3.95833	68.699	-0.485386
3.96000	68.715	-0.485550
3.96167	68.732	-0.485824
3.96333	68.749	-0.486259
3.96500	68.766	-0.486776
3.96667	68.782	-0.487217
3.96833	68.799	-0.487516
3.97000	68.815	-0.487855
3.97167	68.833	-0.488085
3.97333	68.850	-0.488188
3.97500	68.866	-0.488252
3.97667	68.882	-0.488348
3.97833	68.900	-0.488442
3.98000	68.916	-0.488571
3.98167	68.932	-0.488712
3.98333	68.950	-0.488878
3.98500	68.966	-0.489030
3.98667	68.983	-0.489131
3.98833	68.999	-0.489228
3.99000	69.016	-0.489316
3.99167	69.033	-0.489412
3.99333	69.050	-0.489524
3.99500	69.067	-0.489663
3.99667	69.084	-0.489738
3.99833	69.100	-0.489812
4.00000	69.116	-0.489951
4.00167	69.134	-0.490212
4.00333	69.150	-0.490618
4.00500	69.166	-0.491129
4.00667	69.182	-0.491733
4.00833	69.200	-0.492146
4.01000	69.216	-0.492416
4.01167	69.233	-0.492729
4.01333	69.250	-0.492933
4.01500	69.266	-0.493026
4.01667	69.283	-0.493176
4.01833	69.300	-0.493318
4.02000	69.315	-0.493491
4.02167	69.334	-0.493561
4.02333	69.350	-0.493643
4.02500	69.367	-0.493716
4.02667	69.384	-0.493815
4.02833	69.400	-0.493900
4.03000	69.417	-0.494253
4.03167	69.434	-0.494898
4.03333	69.450	-0.495411
4.03500	69.467	-0.495707
4.03667	69.484	-0.496022
4.03833	69.500	-0.496296
4.04000	69.516	-0.496450
4.04167	69.534	-0.496563
4.04333	69.550	-0.496652
4.04500	69.566	-0.496813
4.04667	69.583	-0.496948
4.04833	69.600	-0.497147
4.05000	69.616	-0.497432
4.05167	69.632	-0.497759
4.05333	69.650	-0.497921
4.05500	69.667	-0.498087
4.05667	69.684	-0.498192
4.05833	69.699	-0.498263
4.06000	69.716	-0.498334
4.06167	69.733	-0.498406
4.06333	69.750	-0.498503
4.06500	69.768	-0.498628
4.06667	69.783	-0.498698
4.06833	69.800	-0.498768
4.07000	69.817	-0.498835
4.07167	69.833	-0.498905
4.07333	69.850	-0.498977
4.07500	69.866	-0.499066
4.07667	69.882	-0.499180
4.07833	69.900	-0.499511
4.08000	69.916	-0.499901
4.08167	69.934	-0.500183
4.08333	69.950	-0.500410
4.08500	69.967	-0.500733
4.08667	69.983	-0.501079
4.08833	69.999	-0.501327
4.09000	70.016	-0.501529
4.09167	70.032	-0.501674
4.09333	70.050	-0.501776
4.09500	70.066	-0.501914
4.09667	70.083	-0.502050
4.09833	70.099	-0.502162
4.10000	70.117	-0.502242
4.10167	70.134	-0.502323
4.10333	70.150	-0.502404
4.10500	70.166	-0.502508
4.10667	70.183	-0.502588
4.10833	70.201	-0.502672
4.11000	70.216	-0.502794
4.11167	70.233	-0.502943
4.11333	70.250	-0.503101
4.11500	70.266	-0.503200
4.11667	70.283	-0.503377
4.11833	70.300	-0.503571
4.12000	70.316	-0.503771
4.12167	70.334	-0.503966
4.12333	70.350	-0.504236
4.12500	70.367	-0.504558
4.12667	70.383	-0.504807
4.12833	70.400	-0.505095
4.13000	70.416	-0.505288
4.13167	70.434	-0.505508
4.13333	70.450	-0.505596
4.13500	70.466	-0.505682
4.13667	70.483	-0.505838
4.13833	70.500	-0.505921
4.14000	70.516	-0.506003
4.14167	70.534	-0.506089
4.14333	70.549	-0.506179
4.14500	70.566	-0.506316
4.14667	70.584	-0.506442
4.14833	70.601	-0.506560
4.15000	70.617	-0.506733
4.15167	70.634	-0.507030
4.15333	70.651	-0.507348
4.15500	70.667	-0.507629
4.15667	70.684	-0.507978
4.15833	70.701	-0.508234
4.16000	70.717	-0.508420
4.16167	70.734	-0.508568
4.16333	70.750	-0.508662
4.16500	70.767	-0.508751
4.16667	70.784	-0.508840
4.16833	70.800	-0.508925
4.17000	70.816	-0.509067
4.17167	70.833	-0.509353
4.17333	70.850	-0.509734
4.17500	70.867	-0.510122
4.17667	70.884	-0.510367
4.17833	70.900	-0.510640
4.18000	70.917	-0.511054
4.18167	70.934	-0.511451
4.18333	70.950	-0.511685
4.18500	70.966	-0.511876
4.18667	70.984	-0.512020
4.18833	71.000	-0.512145
4.19000	71.017	-0.512362
4.19167	71.034	-0.512544
4.19333	71.050	-0.512691
4.19500	71.066	-0.512800
4.19667	71.083	-0.512999
4.19833	71.100	-0.513314
4.20000	71.117	-0.513542
4.20167	71.133	-0.513670
4.20333	71.150	-0.513758
4.20500	71.166	-0.513847
4.20667	71.183	-0.514041
4.20833	71.200	-0.514211
4.21000	71.217	-0.514382
4.21167	71.234	-0.514469
4.21333	71.250	-0.514556
4.21500	71.267	-0.514714
4.21667	71.284	-0.514894
4.21833	71.300	-0.515082
4.22000	71.318	-0.515283
4.22167	71.333	-0.515398
4.22333	71.351	-0.515523
4.22500	71.366	-0.515811
4.22667	71.383	-0.516180
4.22833	71.400	-0.516608
4.23000	71.416	-0.517108
4.23167	71.433	-0.517622
4.23333	71.450	-0.518235
4.23500	71.467	-0.518629
4.23667	71.483	-0.518845
4.23833	71.501	-0.519137
4.24000	71.517	-0.519438
4.24167	71.535	-0.519655
4.24333	71.550	-0.519892
4.24500	71.567	-0.520159
4.24667	71.583	-0.520451
4.24833	71.599	-0.520730
4.25000	71.616	-0.520921
4.25167	71.633	-0.521037
4.25333	71.649	-0.521306
4.25500	71.667	-0.521538
4.25667	71.683	-0.521709
4.25833	71.701	-0.521796
4.26000	71.716	-0.521881
4.26167	71.734	-0.522036
4.26333	71.750	-0.522224
4.26500	71.767	-0.522358
4.26667	71.783	-0.522545
4.26833	71.800	-0.522776
4.27000	71.815	-0.522904
4.27167	71.832	-0.523075
4.27333	71.850	-0.523212
4.27500	71.866	-0.523426
4.27667	71.882	-0.523794
4.27833	71.901	-0.524091
4.28000	71.916	-0.524421
4.28167	71.934	-0.524701
4.28333	71.950	-0.524859
4.28500	71.967	-0.524958
4.28667	71.984	-0.525049
4.28833	72.000	-0.525137
4.29000	72.016	-0.525229
4.29167	72.033	-0.525342
4.29333	72.050	-0.525552
4.29500	72.066	-0.525967
4.29667	72.084	-0.526547
4.29833	72.100	-0.527210
4.30000	72.117	-0.527895
4.30167	72.134	-0.528804
4.30333	72.151	-0.529462
4.30500	72.167	-0.529937
4.30667	72.184	-0.530164
4.30833	72.200	-0.530564
4.31000	72.217	-0.530879
4.31167	72.233	-0.531244
4.31333	72.250	-0.531716
4.31500	72.267	-0.532149
4.31667	72.283	-0.532636
4.31833	72.299	-0.533171
4.32000	72.316	-0.533677
4.32167	72.334	-0.534076
4.32333	72.350	-0.534451
4.32500	72.367	-0.534813
4.32667	72.384	-0.535254
4.32833	72.400	-0.535520
4.33000	72.417	-0.535847
4.33167	72.433	-0.536187
4.33333	72.451	-0.536462
4.33500	72.467	-0.536713
4.33667	72.484	-0.537011
4.33833	72.500	-0.537177
4.34000	72.515	-0.537421
4.34167	72.532	-0.537675
4.34333	72.549	-0.538187
4.34500	72.565	-0.538649
4.34667	72.583	-0.538978
4.34833	72.599	-0.539390
4.35000	72.616	-0.539952
4.35167	72.632	-0.540583
4.35333	72.649	-0.541203
4.35500	72.666	-0.541720
4.35667	72.683	-0.542245
4.35833	72.700	-0.543152
4.36000	72.717	-0.543832
4.36167	72.732	-0.544687
4.36333	72.750	-0.545584
4.36500	72.766	-0.546241
4.36667	72.783	-0.546782
4.36833	72.799	-0.547455
4.37000	72.816	-0.548358
4.37167	72.833	-0.548918
4.37333	72.849	-0.549421
4.37500	72.866	-0.549845
4.37667	72.883	-0.550383
4.37833	72.900	-0.550807
4.38000	72.916	-0.551183
4.38167	72.932	-0.551598
4.38333	72.948	-0.551989
4.38500	72.965	-0.552319
4.38667	72.982	-0.552693
4.38833	72.999	-0.553170
4.39000	73.016	-0.553631
4.39167	73.032	-0.554060
4.39333	73.050	-0.554489
4.39500	73.065	-0.554928
4.39667	73.083	-0.555608
4.39833	73.100	-0.556264
4.40000	73.115	-0.557044
4.40167	73.132	-0.557638
4.40333	73.149	-0.558151
4.40500	73.165	-0.558807
4.40667	73.181	-0.559826
4.40833	73.198	-0.560789
4.41000	73.216	-0.561511
4.41167	73.232	-0.562013
4.41333	73.249	-0.562514
4.41500	73.266	-0.563086
4.41667	73.282	-0.563620
4.41833	73.299	-0.564318
4.42000	73.314	-0.564967
4.42167	73.331	-0.565678
4.42333	73.348	-0.566496
4.42500	73.364	-0.567289
4.42667	73.381	-0.567861
4.42833	73.398	-0.568282
4.43000	73.414	-0.568425
4.43167	73.431	-0.568598
4.43333	73.447	-0.568739
4.43500	73.464	-0.568889
4.43667	73.481	-0.569135
4.43833	73.497	-0.569471
4.44000	73.514	-0.570060
4.44167	73.531	-0.570847
4.44333	73.548	-0.571878
4.44500	73.565	-0.572884
4.44667	73.580	-0.573834
4.44833	73.597	-0.574720
4.45000	73.614	-0.575594
4.45167	73.631	-0.576667
4.45333	73.646	-0.577523
4.45500	73.664	-0.578527
4.45667	73.680	-0.579652
4.45833	73.697	-0.580657
4.46000	73.712	-0.581415
4.46167	73.730	-0.581807
4.46333	73.746	-0.582087
4.46500	73.764	-0.582437
4.46667	73.781	-0.582818
4.46833	73.797	-0.583120
4.47000	73.814	-0.583451
4.47167	73.830	-0.583853
4.47333	73.847	-0.584269
4.47500	73.863	-0.584601
4.47667	73.880	-0.584893
4.47833	73.896	-0.585231
4.48000	73.913	-0.585622
4.48167	73.929	-0.586037
4.48333	73.946	-0.586500
4.48500	73.962	-0.587003
4.48667	73.979	-0.587576
4.48833	73.997	-0.588267
4.49000	74.013	-0.589152
4.49167	74.030	-0.589898
4.49333	74.046	-0.590440
4.49500	74.064	-0.590674
4.49667	74.079	-0.590981
4.49833	74.096	-0.591497
4.50000	74.113	-0.592053
4.50167	74.129	-0.592631
4.50333	74.146	-0.593108
4.50500	74.162	-0.593615
4.50667	74.178	-0.594063
4.50833	74.195	-0.594540
4.51000	74.212	-0.595065
4.51167	74.228	-0.595633
4.51333	74.244	-0.595841
4.51500	74.261	-0.595969
4.51667	74.278	-0.596198
4.51833	74.294	-0.596661
4.52000	74.311	-0.597234
4.52167	74.329	-0.597817
4.52333	74.345	-0.598619
4.52500	74.361	-0.599259
4.52667	74.378	-0.599735
4.52833	74.395	-0.600211
4.53000	74.411	-0.600644
4.53167	74.428	-0.601008
4.53333	74.444	-0.601362
4.53500	74.461	-0.601732
4.53667	74.478	-0.602330
4.53833	74.494	-0.602958
4.54000	74.510	-0.603683
4.54167	74.528	-0.604437
4.54333	74.544	-0.605332
4.54500	74.560	-0.606072
4.54667	74.577	-0.606751
4.54833	74.594	-0.607182
4.55000	74.611	-0.607461
4.55167	74.627	-0.607741
4.55333	74.644	-0.607966
4.55500	74.660	-0.608240
4.55667	74.677	-0.608586
4.55833	74.693	-0.608996
4.56000	74.709	-0.609474
4.56167	74.727	-0.610040
4.56333	74.743	-0.610688
4.56500	74.760	-0.611793
4.56667	74.777	-0.613065
4.56833	74.794	-0.614392
4.57000	74.810	-0.616120
4.57167	74.827	-0.617777
4.57333	74.843	-0.619490
4.57500	74.860	-0.620752
4.57667	74.877	-0.621622
4.57833	74.893	-0.622327
4.58000	74.910	-0.622798
4.58167	74.927	-0.623173
4.58333	74.943	-0.623728
4.58500	74.958	-0.624231
4.58667	74.975	-0.624761
4.58833	74.992	-0.625459
4.59000	75.009	-0.626347
4.59167	75.025	-0.627602
4.59333	75.043	-0.628614
4.59500	75.058	-0.629560
4.59667	75.074	-0.630448
4.59833	75.092	-0.631169
4.60000	75.108	-0.631995
4.60167	75.124	-0.633305
4.60333	75.141	-0.634537
4.60500	75.158	-0.636034
4.60667	75.176	-0.637223
4.60833	75.190	-0.638141
4.61000	75.208	-0.638977
4.61167	75.224	-0.639831
4.61333	75.241	-0.640671
4.61500	75.257	-0.641604
4.61667	75.274	-0.642237
4.61833	75.290	-0.643195
4.62000	75.307	-0.644724
4.62167	75.324	-0.646518
4.62333	75.340	-0.648743
4.62500	75.356	-0.651015
4.62667	75.373	-0.653707
4.62833	75.389	-0.655916
4.63000	75.406	-0.657942
4.63167	75.422	-0.659555
4.63333	75.439	-0.661061
4.63500	75.455	-0.662190
4.63667	75.473	-0.663466
4.63833	75.488	-0.664751
4.64000	75.506	-0.666130
4.64167	75.523	-0.667589
4.64333	75.538	-0.669480
4.64500	75.555	-0.672067
4.64667	75.571	-0.674660
4.64833	75.588	-0.677261
4.65000	75.604	-0.680315
4.65167	75.620	-0.683051
4.65333	75.638	-0.686632
4.65500	75.654	-0.688496
4.65667	75.671	-0.690261
4.65833	75.687	-0.692090
4.66000	75.704	-0.693701
4.66167	75.721	-0.696350
4.66333	75.737	-0.699233
4.66500	75.753	-0.701441
4.66667	75.769	-0.703337
4.66833	75.785	-0.705984
4.67000	75.801	-0.708102
4.67167	75.818	-0.710998
4.67333	75.835	-0.714838
4.67500	75.852	-0.718599
4.67667	75.869	-0.721956
4.67833	75.885	-0.724472
4.68000	75.901	-0.728295
4.68167	75.918	-0.733110
4.68333	75.933	-0.736426
4.68500	75.950	-0.738824
4.68667	75.966	-0.740731
4.68833	75.982	-0.743103
4.69000	75.998	-0.745596
4.69167	76.015	-0.748931
4.69333	76.031	-0.752882
4.69500	76.048	-0.754819
4.69667	76.064	-0.757880
4.69833	76.079	-0.761605
4.70000	76.097	-0.766989
4.70167	76.114	-0.770999
4.70333	76.129	-0.775524
4.70500	76.145	-0.779378
4.70667	76.161	-0.784491
4.70833	76.178	-0.789758
4.71000	76.194	-0.794710
4.71167	76.211	-0.799384
4.71333	76.227	-0.803675
4.71500	76.243	-0.808484
4.71667	76.260	-0.812888
4.71833	76.276	-0.818159
4.72000	76.293	-0.822125
4.72167	76.308	-0.827177
4.72333	76.325	-0.832534
4.72500	76.340	-0.837721
4.72667	76.357	-0.843884
4.72833	76.373	-0.850274
4.73000	76.389	-0.857497
4.73167	76.405	-0.865997
4.73333	76.422	-0.873755
4.73500	76.437	-0.880677
4.73667	76.454	-0.887665
4.73833	76.470	-0.894145
4.74000	76.485	-0.900229
4.74167	76.502	-0.906792
4.74333	76.519	-0.913165
4.74500	76.535	-0.920595
4.74667	76.551	-0.929335
4.74833	76.566	-0.937552
4.75000	76.582	-0.947388
4.75167	76.597	-0.956764
4.75333	76.614	-0.967560
4.75500	76.630	-0.978384
4.75667	76.646	-0.988066
4.75833	76.662	-0.998573
4.76000	76.678	-1.00933
4.76167	76.693	-1.02098
4.76333	76.709	-1.03220
4.76500	76.725	-1.04417
4.76667	76.741	-1.05656
4.76833	76.756	-1.07039
4.77000	76.772	-1.08400
4.77167	76.788	-1.09883
4.77333	76.802	-1.11390
4.77500	76.819	-1.12824
4.77667	76.834	-1.14531
4.77833	76.850	-1.16404
4.78000	76.865	-1.18213
4.78167	76.880	-1.20150
4.78333	76.896	-1.22101
4.78500	76.912	-1.24141
4.78667	76.927	-1.26274
4.78833	76.942	-1.28530
4.79000	76.957	-1.31014
4.79167	76.971	-1.33522
4.79333	76.986	-1.36161
4.79500	77.002	-1.39084
4.79667	77.016	-1.42271
4.79833	77.030	-1.45478
4.80000	77.046	-1.48863
4.80167	77.060	-1.52175
4.80333	77.075	-1.55686
4.80500	77.089	-1.59147
4.80667	77.103	-1.62687
4.80833	77.117	-1.66169
4.81000	77.131	-1.69801
4.81167	77.145	-1.73608
4.81333	77.160	-1.77559
4.81500	77.172	-1.81730
4.81667	77.187	-1.86044
4.81833	77.200	-1.90451
4.82000	77.213	-1.94869
4.82167	77.227	-1.99351
4.82333	77.240	-2.03972
4.82500	77.253	-2.08455
4.82667	77.266	-2.12891
4.82833	77.279	-2.17208
4.83000	77.292	-2.21326
4.83167	77.305	-2.25480
4.83333	77.317	-2.29670
4.83500	77.330	-2.33727
4.83667	77.342	-2.37723
4.83833	77.354	-2.41586
4.84000	77.367	-2.45402
4.84167	77.380	-2.49265
4.84333	77.393	-2.53112
4.84500	77.404	-2.57050
4.84667	77.417	-2.60854
4.84833	77.428	-2.64756
4.85000	77.441	-2.68713
4.85167	77.452	-2.72985
4.85333	77.466	-2.77256
4.85500	77.478	-2.81751
4.85667	77.490	-2.86401
4.85833	77.501	-2.91228
4.86000	77.514	-2.96438
4.86167	77.525	-3.01755
4.86333	77.537	-3.07592
4.86500	77.548	-3.13580
4.86667	77.559	-3.20008
4.86833	77.570	-3.26676
4.87000	77.581	-3.33716
4.87167	77.593	-3.40775
4.87333	77.604	-3.48016
4.87500	77.613	-3.55317
4.87667	77.624	-3.62573
4.87833	77.633	-3.69801
4.88000	77.644	-3.76867
4.88167	77.653	-3.83741
4.88333	77.664	-3.90544
4.88500	77.673	-3.97278
4.88667	77.684	-4.03866
4.88833	77.692	-4.10350
4.89000	77.703	-4.16568
4.89167	77.712	-4.22667
4.89333	77.721	-4.28732
4.89500	77.732	-4.34471
4.89667	77.740	-4.40017
4.89833	77.750	-4.45356
4.90000	77.760	-4.50429
4.90167	77.768	-4.55142
4.90333	77.777	-4.59937
4.90500	77.788	-4.64358
4.90667	77.797	-4.68658
4.90833	77.806	-4.72732
4.91000	77.815	-4.76811
4.91167	77.825	-4.81050
4.91333	77.835	-4.85215
4.91500	77.843	-4.89508
4.91667	77.853	-4.93892
4.91833	77.863	-4.98487
4.92000	77.872	-5.03094
4.92167	77.881	-5.08082
4.92333	77.892	-5.13247
4.92500	77.900	-5.18584
4.92667	77.910	-5.24046
4.92833	77.920	-5.29700
4.93000	77.929	-5.35698
4.93167	77.938	-5.42054
4.93333	77.948	-5.48590
4.93500	77.956	-5.55279
4.93667	77.965	-5.62114
4.93833	77.974	-5.68885
4.94000	77.982	-5.75607
4.94167	77.992	-5.82176
4.94333	78.000	-5.88536
4.94500	78.008	-5.94650
4.94667	78.018	-6.00444
4.94833	78.026	-6.06101
4.95000	78.034	-6.11778
4.95167	78.043	-6.17270
4.95333	78.052	-6.22638
4.95500	78.061	-6.27972
4.95667	78.069	-6.33310
4.95833	78.076	-6.38752
4.96000	78.086	-6.44126
4.96167	78.094	-6.49404
4.96333	78.102	-6.54581
4.96500	78.111	-6.59880
4.96667	78.120	-6.64992
4.96833	78.129	-6.70044
4.97000	78.137	-6.74708
4.97167	78.146	-6.79219
4.97333	78.155	-6.83476
4.97500	78.163	-6.87410
4.97667	78.171	-6.91380
4.97833	78.181	-6.95392
4.98000	78.190	-6.99321
4.98167	78.199	-7.03156
4.98333	78.207	-7.07475
4.98500	78.217	-7.12060
4.98667	78.225	-7.17124
4.98833	78.234	-7.22526
4.99000	78.243	-7.28384
4.99167	78.252	-7.34737
4.99333	78.261	-7.41575
4.99500	78.270	-7.48752
4.99667	78.278	-7.56288
4.99833	78.286	-7.63930
5.00000	78.295	-7.71589
5.00167	78.303	-7.79122
5.00333	78.311	-7.86518
5.00500	78.319	-7.93857
5.00667	78.328	-8.00966
5.00833	78.335	-8.08048
5.01000	78.343	-8.15332
5.01167	78.351	-8.22564
5.01333	78.359	-8.29938
5.01500	78.365	-8.37327
5.01667	78.374	-8.44789
5.01833	78.381	-8.52195
5.02000	78.389	-8.59290
5.02167	78.396	-8.65900
5.02333	78.404	-8.71858
5.02500	78.411	-8.76685
5.02667	78.419	-8.80643
5.02833	78.426	-8.83520
5.03000	78.434	-8.85270
5.03167	78.442	-8.86055
5.03333	78.449	-8.85854
5.03500	78.458	-8.85077
5.03667	78.468	-8.83638
5.03833	78.478	-8.81891
5.04000	78.487	-8.79942
5.04167	78.497	-8.77985
5.04333	78.506	-8.75649
5.04500	78.518	-8.73123
5.04667	78.528	-8.70239
5.04833	78.539	-8.66902
5.05000	78.551	-8.63022
5.05167	78.562	-8.58737
5.05333	78.574	-8.53918
5.05500	78.587	-8.48423
5.05667	78.600	-8.42719
5.05833	78.613	-8.36506
5.06000	78.627	-8.30097
5.06167	78.641	-8.23663
5.06333	78.655	-8.17141
5.06500	78.669	-8.10720
5.06667	78.685	-8.04459
5.06833	78.700	-7.98286
5.07000	78.716	-7.92335
5.07167	78.732	-7.86446
5.07333	78.749	-7.80706
5.07500	78.765	-7.75392
5.07667	78.781	-7.70382
5.07833	78.799	-7.65560
5.08000	78.815	-7.61034
5.08167	78.833	-7.56618
5.08333	78.850	-7.52422
5.08500	78.868	-7.48440
5.08667	78.885	-7.44629
5.08833	78.903	-7.40963
5.09000	78.921	-7.37380
5.09167	78.938	-7.33913
5.09333	78.957	-7.30644
5.09500	78.976	-7.27664
5.09667	78.993	-7.24863
5.09833	79.011	-7.22157
5.10000	79.030	-7.19500
5.10167	79.047	-7.16840
5.10333	79.066	-7.14232
5.10500	79.085	-7.11586
5.10667	79.103	-7.09020
5.10833	79.122	-7.06398
5.11000	79.141	-7.03753
5.11167	79.159	-7.01048
5.11333	79.179	-6.98312
5.11500	79.198	-6.95664
5.11667	79.216	-6.93085
5.11833	79.234	-6.90498
5.12000	79.254	-6.87867
5.12167	79.273	-6.85137
5.12333	79.292	-6.82444
5.12500	79.311	-6.79798
5.12667	79.331	-6.77182
5.12833	79.351	-6.74474
5.13000	79.370	-6.71811
5.13167	79.389	-6.68984
5.13333	79.407	-6.66332
5.13500	79.427	-6.64004
5.13667	79.445	-6.61766
5.13833	79.466	-6.59444
5.14000	79.486	-6.57150
5.14167	79.506	-6.54916
5.14333	79.524	-6.52706
5.14500	79.544	-6.50534
5.14667	79.564	-6.48422
5.14833	79.583	-6.46124
5.15000	79.602	-6.43837
5.15167	79.622	-6.41667
5.15333	79.642	-6.39504
5.15500	79.661	-6.37467
5.15667	79.681	-6.35301
5.15833	79.700	-6.33075
5.16000	79.720	-6.30994
5.16167	79.740	-6.28988
5.16333	79.759	-6.27033
5.16500	79.780	-6.25148
5.16667	79.799	-6.23289
5.16833	79.818	-6.21328
5.17000	79.838	-6.19334
5.17167	79.858	-6.17212
5.17333	79.878	-6.14938
5.17500	79.898	-6.12583
5.17667	79.917	-6.09971
5.17833	79.936	-6.07084
5.18000	79.956	-6.04147
5.18167	79.977	-6.01048
5.18333	79.996	-5.97733
5.18500	80.017	-5.94355
5.18667	80.036	-5.90933
5.18833	80.055	-5.87340
5.19000	80.076	-5.83925
5.19167	80.096	-5.80377
5.19333	80.117	-5.76842
5.19500	80.138	-5.73227
5.19667	80.158	-5.69609
5.19833	80.178	-5.65779
5.20000	80.198	-5.61848
5.20167	80.219	-5.57690
5.20333	80.240	-5.53513
5.20500	80.260	-5.49210
5.20667	80.281	-5.44623
5.20833	80.302	-5.40122
5.21000	80.323	-5.35420
5.21167	80.345	-5.30702
5.21333	80.365	-5.25976
5.21500	80.386	-5.21103
5.21667	80.409	-5.15926
5.21833	80.429	-5.10430
5.22000	80.451	-5.04682
5.22167	80.472	-4.98653
5.22333	80.495	-4.92238
5.22500	80.517	-4.85471
5.22667	80.538	-4.78237
5.22833	80.560	-4.70503
5.23000	80.583	-4.62416
5.23167	80.607	-4.53890
5.23333	80.628	-4.44752
5.23500	80.651	-4.35324
5.23667	80.676	-4.25550
5.23833	80.699	-4.15556
5.24000	80.723	-4.05289
5.24167	80.748	-3.94915
5.24333	80.772	-3.84499
5.24500	80.797	-3.74204
5.24667	80.822	-3.64176
5.24833	80.848	-3.54500
5.25000	80.872	-3.45158
5.25167	80.897	-3.36004
5.25333	80.923	-3.27403
5.25500	80.950	-3.19288
5.25667	80.975	-3.11776
5.25833	81.001	-3.04707
5.26000	81.026	-2.98161
5.26167	81.053	-2.92000
5.26333	81.078	-2.86236
5.26500	81.103	-2.80856
5.26667	81.130	-2.75819
5.26833	81.156	-2.71035
5.27000	81.180	-2.66337
5.27167	81.207	-2.61931
5.27333	81.232	-2.57752
5.27500	81.257	-2.53679
5.27667	81.282	-2.49791
5.27833	81.308	-2.46133
5.28000	81.332	-2.42515
5.28167	81.357	-2.39176
5.28333	81.382	-2.35938
5.28500	81.406	-2.32937
5.28667	81.432	-2.30067
5.28833	81.457	-2.27261
5.29000	81.481	-2.24593
5.29167	81.505	-2.21918
5.29333	81.530	-2.19333
5.29500	81.554	-2.16793
5.29667	81.578	-2.14192
5.29833	81.602	-2.11494
5.30000	81.626	-2.08955
5.30167	81.650	-2.06476
5.30333	81.673	-2.04123
5.30500	81.697	-2.01923
5.30667	81.720	-1.99780
5.30833	81.745	-1.97746
5.31000	81.767	-1.95641
5.31167	81.790	-1.93639
5.31333	81.814	-1.91709
5.31500	81.837	-1.89614
5.31667	81.860	-1.87651
5.31833	81.883	-1.85667
5.32000	81.905	-1.83817
5.32167	81.928	-1.81994
5.32333	81.950	-1.80168
5.32500	81.973	-1.78497
5.32667	81.995	-1.76766
5.32833	82.017	-1.75139
5.33000	82.040	-1.73496
5.33167	82.063	-1.71839
5.33333	82.084	-1.70097
5.33500	82.106	-1.68387
5.33667	82.129	-1.66754
5.33833	82.151	-1.65202
5.34000	82.172	-1.63654
5.34167	82.194	-1.62090
5.34333	82.215	-1.60568
5.34500	82.237	-1.59048
5.34667	82.258	-1.57564
5.34833	82.279	-1.56240
5.35000	82.301	-1.54727
5.35167	82.323	-1.53282
5.35333	82.343	-1.51940
5.35500	82.364	-1.50630
5.35667	82.386	-1.49292
5.35833	82.406	-1.47995
5.36000	82.428	-1.46879
5.36167	82.449	-1.45642
5.36333	82.470	-1.44359
5.36500	82.490	-1.42994
5.36667	82.512	-1.41823
5.36833	82.533	-1.40591
5.37000	82.554	-1.39384
5.37167	82.574	-1.38327
5.37333	82.594	-1.37227
5.37500	82.614	-1.36078
5.37667	82.634	-1.35067
5.37833	82.655	-1.34178
5.38000	82.675	-1.33279
5.38167	82.695	-1.32203
5.38333	82.716	-1.31031
5.38500	82.736	-1.29794
5.38667	82.756	-1.28685
5.38833	82.776	-1.27675
5.39000	82.796	-1.26780
5.39167	82.816	-1.25741
5.39333	82.835	-1.24761
5.39500	82.855	-1.23777
5.39667	82.876	-1.22862
5.39833	82.895	-1.22198
5.40000	82.915	-1.21488
5.40167	82.935	-1.20714
5.40333	82.955	-1.19697
5.40500	82.974	-1.18743
5.40667	82.993	-1.17798
5.40833	83.013	-1.16796
5.41000	83.033	-1.15942
5.41167	83.052	-1.15151
5.41333	83.071	-1.14288
5.41500	83.090	-1.13364
5.41667	83.110	-1.12674
5.41833	83.128	-1.12170
5.42000	83.147	-1.11551
5.42167	83.167	-1.10864
5.42333	83.186	-1.10092
5.42500	83.205	-1.09394
5.42667	83.225	-1.08612
5.42833	83.243	-1.07960
5.43000	83.262	-1.07265
5.43167	83.281	-1.06567
5.43333	83.300	-1.05808
5.43500	83.319	-1.05037
5.43667	83.338	-1.04323
5.43833	83.356	-1.03668
5.44000	83.375	-1.03046
5.44167	83.394	-1.02409
5.44333	83.413	-1.01881
5.44500	83.431	-1.01346
5.44667	83.450	-1.00775
5.44833	83.469	-1.00248
5.45000	83.487	-0.998287
5.45167	83.505	-0.993164
5.45333	83.523	-0.986792
5.45500	83.542	-0.980717
5.45667	83.560	-0.975210
5.45833	83.580	-0.969180
5.46000	83.598	-0.964352
5.46167	83.616	-0.958788
5.46333	83.635	-0.953121
5.46500	83.653	-0.948741
5.46667	83.672	-0.943665
5.46833	83.691	-0.938396
5.47000	83.708	-0.933555
5.47167	83.727	-0.927880
5.47333	83.745	-0.923579
5.47500	83.763	-0.919656
5.47667	83.781	-0.916521
5.47833	83.800	-0.913094
5.48000	83.817	-0.909769
5.48167	83.836	-0.906030
5.48333	83.853	-0.902404
5.48500	83.873	-0.898351
5.48667	83.890	-0.893509
5.48833	83.909	-0.887118
5.49000	83.926	-0.881975
5.49167	83.944	-0.876584
5.49333	83.962	-0.871900
5.49500	83.980	-0.867915
5.49667	83.998	-0.864625
5.49833	84.017	-0.861606
5.50000	84.033	-0.858711
5.50167	84.052	-0.855638
5.50333	84.069	-0.853578
5.50500	84.087	-0.849584
5.50667	84.105	-0.845018
5.50833	84.123	-0.842263
5.51000	84.141	-0.837745
5.51167	84.159	-0.835499
5.51333	84.177	-0.832273
5.51500	84.195	-0.829906
5.51667	84.212	-0.826970
5.51833	84.229	-0.823434
5.52000	84.248	-0.820538
5.52167	84.266	-0.818253
5.52333	84.282	-0.814418
5.52500	84.301	-0.810778
5.52667	84.318	-0.807909
5.52833	84.336	-0.804811
5.53000	84.353	-0.801815
5.53167	84.371	-0.800147
5.53333	84.389	-0.798284
5.53500	84.406	-0.797016
5.53667	84.423	-0.794037
5.53833	84.441	-0.790654
5.54000	84.458	-0.787795
5.54167	84.476	-0.784520
5.54333	84.493	-0.781305
5.54500	84.511	-0.778222
5.54667	84.529	-0.775788
5.54833	84.546	-0.771186
5.55000	84.564	-0.768793
5.55167	84.580	-0.767637
5.55333	84.599	-0.767112
5.55500	84.616	-0.766013
5.55667	84.633	-0.762799
5.55833	84.651	-0.761027
5.56000	84.668	-0.758727
5.56167	84.685	-0.756897
5.56333	84.703	-0.755308
5.56500	84.720	-0.752740
5.56667	84.738	-0.750376
5.56833	84.755	-0.746892
5.57000	84.772	-0.744426
5.57167	84.789	-0.744183
5.57333	84.807	-0.743878
5.57500	84.824	-0.741478
5.57667	84.841	-0.740099
5.57833	84.859	-0.738219
5.58000	84.875	-0.736255
5.58167	84.894	-0.734193
5.58333	84.910	-0.731799
5.58500	84.927	-0.731144
5.58667	84.945	-0.729991
5.58833	84.962	-0.727821
5.59000	84.979	-0.726047
5.59167	84.996	-0.725061
5.59333	85.014	-0.723881
5.59500	85.032	-0.723073
5.59667	85.048	-0.720776
5.59833	85.066	-0.717990
5.60000	85.082	-0.715519
5.60167	85.099	-0.714487
5.60333	85.117	-0.712124
5.60500	85.134	-0.710088
5.60667	85.152	-0.708533
5.60833	85.168	-0.707638
5.61000	85.186	-0.708379
5.61167	85.203	-0.708237
5.61333	85.220	-0.707474
5.61500	85.238	-0.706551
5.61667	85.255	-0.704708
5.61833	85.271	-0.703516
5.62000	85.289	-0.702428
5.62167	85.306	-0.701945
5.62333	85.322	-0.699976
5.62500	85.341	-0.697593
5.62667	85.357	-0.695650
5.62833	85.375	-0.695289
5.63000	85.392	-0.694587
5.63167	85.410	-0.694314
5.63333	85.425	-0.693475
5.63500	85.442	-0.692648
5.63667	85.460	-0.691414
5.63833	85.476	-0.689543
5.64000	85.494	-0.688071
5.64167	85.511	-0.686404
5.64333	85.528	-0.685200
5.64500	85.545	-0.683794
5.64667	85.562	-0.682941
5.64833	85.579	-0.682084
5.65000	85.595	-0.681481
5.65167	85.612	-0.680830
5.65333	85.630	-0.680953
5.65500	85.647	-0.680665
5.65667	85.663	-0.680163
5.65833	85.680	-0.679899
5.66000	85.697	-0.678714
5.66167	85.714	-0.677738
5.66333	85.731	-0.676626
5.66500	85.749	-0.674849
5.66667	85.765	-0.673591
5.66833	85.782	-0.672690
5.67000	85.799	-0.672010
5.67167	85.816	-0.671778
5.67333	85.833	-0.671719
5.67500	85.850	-0.671625
5.67667	85.866	-0.671617
5.67833	85.884	-0.671604
5.68000	85.900	-0.671489
5.68167	85.918	-0.671083
5.68333	85.934	-0.669920
5.68500	85.952	-0.668643
5.68667	85.968	-0.667248
5.68833	85.984	-0.665822
5.69000	86.002	-0.664438
5.69167	86.019	-0.663302
5.69333	86.036	-0.662625
5.69500	86.052	-0.662235
5.69667	86.070	-0.662153
5.69833	86.088	-0.662180
5.70000	86.104	-0.662139
5.70167	86.120	-0.662081
5.70333	86.138	-0.662003
5.70500	86.155	-0.661678
5.70667	86.171	-0.661189
5.70833	86.189	-0.660555
5.71000	86.206	-0.659608
5.71167	86.223	-0.658817
5.71333	86.239	-0.658225
5.71500	86.256	-0.657911
5.71667	86.272	-0.657630
5.71833	86.290	-0.657453
5.72000	86.306	-0.657145
5.72167	86.323	-0.656724
5.72333	86.340	-0.656223
5.72500	86.357	-0.655502
5.72667	86.373	-0.654826
5.72833	86.390	-0.654018
5.73000	86.407	-0.653431
5.73167	86.424	-0.653008
5.73333	86.441	-0.652607
5.73500	86.458	-0.652278
5.73667	86.475	-0.652021
5.73833	86.492	-0.651463
5.74000	86.508	-0.650875
5.74167	86.525	-0.650381
5.74333	86.542	-0.649681
5.74500	86.559	-0.649200
5.74667	86.576	-0.648861
5.74833	86.592	-0.648672
5.75000	86.610	-0.648560
5.75167	86.626	-0.648511
5.75333	86.644	-0.648470
5.75500	86.660	-0.648429
5.75667	86.677	-0.648350
5.75833	86.694	-0.648299
5.76000	86.710	-0.648233
5.76167	86.728	-0.648107
5.76333	86.745	-0.647970
5.76500	86.761	-0.647775
5.76667	86.778	-0.647607
5.76833	86.795	-0.647404
5.77000	86.812	-0.647151
5.77167	86.828	-0.646827
5.77333	86.845	-0.646332
5.77500	86.862	-0.645720
5.77667	86.878	-0.645228
5.77833	86.895	-0.644602
5.78000	86.912	-0.644022
5.78167	86.929	-0.643630
5.78333	86.946	-0.643311
5.78500	86.963	-0.643098
5.78667	86.979	-0.642977
5.78833	86.997	-0.642864
5.79000	87.013	-0.642711
5.79167	87.030	-0.642621
5.79333	87.047	-0.642500
5.79500	87.063	-0.642295
5.79667	87.079	-0.642130
5.79833	87.097	-0.641974
5.80000	87.113	-0.641782
5.80167	87.130	-0.641610
5.80333	87.147	-0.641412
5.80500	87.163	-0.641294
5.80667	87.181	-0.641213
5.80833	87.198	-0.641145
5.81000	87.214	-0.641074
5.81167	87.231	-0.641003
5.81333	87.248	-0.640903
5.81500	87.264	-0.640777
5.81667	87.282	-0.640614
5.81833	87.297	-0.640393
5.82000	87.314	-0.640217
5.82167	87.331	-0.640054
5.82333	87.348	-0.639935
5.82500	87.364	-0.639833
5.82667	87.381	-0.639748
5.82833	87.399	-0.639694
5.83000	87.415	-0.639638
5.83167	87.431	-0.639566
5.83333	87.448	-0.639471
5.83500	87.464	-0.639328
5.83667	87.482	-0.639132
5.83833	87.498	-0.638982
5.84000	87.515	-0.638925
5.84167	87.531	-0.638822
5.84333	87.549	-0.638619
5.84500	87.565	-0.638383
5.84667	87.583	-0.638148
5.84833	87.599	-0.638054
5.85000	87.615	-0.638008
5.85167	87.632	-0.637922
5.85333	87.649	-0.637832
5.85500	87.665	-0.637736
5.85667	87.683	-0.637659
5.85833	87.699	-0.637613
5.86000	87.715	-0.637374
5.86167	87.734	-0.637154
5.86333	87.750	-0.637113
5.86500	87.767	-0.637069
5.86667	87.782	-0.637024
5.86833	87.800	-0.636980
5.87000	87.816	-0.636897
5.87167	87.832	-0.636646
5.87333	87.849	-0.636330
5.87500	87.865	-0.635597
5.87667	87.883	-0.634767
5.87833	87.900	-0.634434
5.88000	87.917	-0.634307
5.88167	87.934	-0.634262
5.88333	87.949	-0.634188
5.88500	87.966	-0.634155
5.88667	87.983	-0.634146
5.88833	88.000	-0.634130
5.89000	88.016	-0.634111
5.89167	88.033	-0.634093
5.89333	88.049	-0.634072
5.89500	88.067	-0.634044
5.89667	88.083	-0.634007
5.89833	88.100	-0.633979
5.90000	88.117	-0.633951
5.90167	88.133	-0.633913
5.90333	88.149	-0.633870
5.90500	88.167	-0.633820
5.90667	88.183	-0.633768
5.90833	88.200	-0.633701
5.91000	88.217	-0.633622
5.91167	88.233	-0.633564
5.91333	88.249	-0.633516
5.91500	88.266	-0.633472
5.91667	88.284	-0.633429
5.91833	88.300	-0.633378
5.92000	88.316	-0.633333
5.92167	88.334	-0.633287
5.92333	88.351	-0.633238
5.92500	88.368	-0.633195
5.92667	88.384	-0.633163
5.92833	88.400	-0.633129
5.93000	88.418	-0.633089
5.93167	88.434	-0.633047
5.93333	88.450	-0.633002
5.93500	88.467	-0.632955
5.93667	88.484	-0.632910
5.93833	88.501	-0.632864
5.94000	88.518	-0.632821
5.94167	88.534	-0.632780
5.94333	88.551	-0.632734
5.94500	88.568	-0.632696
5.94667	88.585	-0.632662
5.94833	88.602	-0.632624
5.95000	88.617	-0.632587
5.95167	88.634	-0.632547
5.95333	88.651	-0.632506
5.95500	88.668	-0.632461
5.95667	88.685	-0.632418
5.95833	88.702	-0.632376
5.96000	88.719	-0.632339
5.96167	88.735	-0.632294
5.96333	88.751	-0.632245
5.96500	88.769	-0.632200
5.96667	88.784	-0.632158
5.96833	88.801	-0.632114
5.97000	88.819	-0.632064
5.97167	88.836	-0.632014
5.97333	88.852	-0.631957
5.97500	88.867	-0.631908
5.97667	88.885	-0.631866
5.97833	88.901	-0.631828
5.98000	88.918	-0.631792
5.98167	88.935	-0.631749
5.98333	88.951	-0.631713
5.98500	88.968	-0.631684
5.98667	88.985	-0.631661
5.98833	89.002	-0.631635
5.99000	89.018	-0.631611
5.99167	89.035	-0.631587
5.99333	89.053	-0.631576
5.99500	89.069	-0.631568
5.99667	89.086	-0.631555
5.99833	89.102	-0.631539
6.00000	89.119	-0.631505
6.00167	89.135	-0.631464
6.00333	89.152	-0.631414
6.00500	89.169	-0.631345
6.00667	89.185	-0.631257
6.00833	89.202	-0.631198
6.01000	89.219	-0.631152
6.01167	89.235	-0.631120
6.01333	89.251	-0.631099
6.01500	89.269	-0.631078
6.01667	89.285	-0.631058
6.01833	89.302	-0.631035
6.02000	89.319	-0.631008
6.02167	89.335	-0.630972
6.02333	89.352	-0.630928
6.02500	89.368	-0.630877
6.02667	89.385	-0.630807
6.02833	89.403	-0.630754
6.03000	89.419	-0.630705
6.03167	89.435	-0.630658
6.03333	89.453	-0.630616
6.03500	89.469	-0.630575
6.03667	89.486	-0.630535
6.03833	89.502	-0.630494
6.04000	89.519	-0.630458
6.04167	89.535	-0.630429
6.04333	89.552	-0.630402
6.04500	89.569	-0.630375
6.04667	89.586	-0.630343
6.04833	89.603	-0.630302
6.05000	89.619	-0.630251
6.05167	89.635	-0.630195
6.05333	89.652	-0.630125
6.05500	89.668	-0.630065
6.05667	89.685	-0.629964
6.05833	89.702	-0.629894
6.06000	89.719	-0.629840
6.06167	89.736	-0.629790
6.06333	89.753	-0.629759
6.06500	89.770	-0.629740
6.06667	89.786	-0.629714
6.06833	89.803	-0.629693
6.07000	89.820	-0.629668
6.07167	89.836	-0.629632
6.07333	89.852	-0.629591
6.07500	89.869	-0.629551
6.07667	89.886	-0.629516
6.07833	89.903	-0.629486
6.08000	89.920	-0.629455
6.08167	89.936	-0.629434
6.08333	89.953	-0.629418
6.08500	89.972	-0.629399
6.08667	89.987	-0.629380
6.08833	90.003	-0.629362
6.09000	90.019	-0.629335
6.09167	90.036	-0.629303
6.09333	90.053	-0.629270
6.09500	90.070	-0.629238
6.09667	90.087	-0.629207
6.09833	90.103	-0.629185
6.10000	90.120	-0.629169
6.10167	90.137	-0.629151
6.10333	90.153	-0.629127
6.10500	90.170	-0.629100
6.10667	90.186	-0.629072
6.10833	90.204	-0.629037
6.11000	90.220	-0.628998
6.11167	90.237	-0.628955
6.11333	90.253	-0.628913
6.11500	90.271	-0.628871
6.11667	90.287	-0.628831
6.11833	90.304	-0.628798
6.12000	90.321	-0.628761
6.12167	90.338	-0.628721
6.12333	90.354	-0.628685
6.12500	90.370	-0.628649
6.12667	90.387	-0.628609
6.12833	90.404	-0.628576
6.13000	90.421	-0.628544
6.13167	90.437	-0.628506
6.13333	90.454	-0.628467
6.13500	90.471	-0.628429
6.13667	90.487	-0.628397
6.13833	90.505	-0.628368
6.14000	90.521	-0.628337
6.14167	90.538	-0.628314
6.14333	90.554	-0.628287
6.14500	90.570	-0.628267
6.14667	90.587	-0.628258
6.14833	90.604	-0.628256
6.15000	90.620	-0.628248
6.15167	90.637	-0.628234
6.15333	90.653	-0.628215
6.15500	90.670	-0.628190
6.15667	90.686	-0.628163
6.15833	90.702	-0.628139
6.16000	90.720	-0.628118
6.16167	90.736	-0.628097
6.16333	90.753	-0.628079
6.16500	90.770	-0.628071
6.16667	90.786	-0.628061
6.16833	90.804	-0.628045
6.17000	90.821	-0.628028
6.17167	90.837	-0.628003
6.17333	90.854	-0.627969
6.17500	90.871	-0.627928
6.17667	90.887	-0.627887
6.17833	90.904	-0.627844
6.18000	90.920	-0.627813
6.18167	90.937	-0.627783
6.18333	90.954	-0.627765
6.18500	90.971	-0.627745
6.18667	90.988	-0.627722
6.18833	91.004	-0.627698
6.19000	91.020	-0.627684
6.19167	91.037	-0.627671
6.19333	91.054	-0.627657
6.19500	91.070	-0.627638
6.19667	91.087	-0.627608
6.19833	91.104	-0.627580
6.20000	91.121	-0.627563
6.20167	91.137	-0.627550
6.20333	91.154	-0.627542
6.20500	91.171	-0.627540
6.20667	91.187	-0.627538
6.20833	91.204	-0.627535
6.21000	91.221	-0.627534
6.21167	91.239	-0.627530
6.21333	91.255	-0.627517
6.21500	91.271	-0.627495
6.21667	91.288	-0.627461
6.21833	91.304	-0.627430
6.22000	91.320	-0.627402
6.22167	91.337	-0.627381
6.22333	91.354	-0.627361
6.22500	91.370	-0.627341
6.22667	91.387	-0.627323
6.22833	91.404	-0.627308
6.23000	91.421	-0.627289
6.23167	91.437	-0.627270
6.23333	91.454	-0.627258
6.23500	91.470	-0.627235
6.23667	91.487	-0.627219
6.23833	91.503	-0.627211
6.24000	91.521	-0.627210
6.24167	91.537	-0.627210
6.24333	91.554	-0.627206
6.24500	91.572	-0.627201
6.24667	91.587	-0.627190
6.24833	91.604	-0.627168
6.25000	91.620	-0.627138
6.25167	91.638	-0.627114
6.25333	91.655	-0.627087
6.25500	91.670	-0.627066
6.25667	91.688	-0.627054
6.25833	91.704	-0.627043
6.26000	91.721	-0.627037
6.26167	91.738	-0.627031
6.26333	91.755	-0.627044
6.26500	91.771	-0.627072
6.26667	91.788	-0.627083
6.26833	91.804	-0.627086
6.27000	91.820	-0.627086
6.27167	91.837	-0.627082
6.27333	91.854	-0.627065
6.27500	91.870	-0.627055
6.27667	91.888	-0.627042
6.27833	91.904	-0.627032
6.28000	91.921	-0.627024
6.28167	91.937	-0.627018
6.28333	91.954	-0.627016
6.28500	91.971	-0.627023
6.28667	91.987	-0.627028
6.28833	92.004	-0.627037
6.29000	92.021	-0.627040
6.29167	92.037	-0.627039
6.29333	92.054	-0.627038
6.29500	92.072	-0.627038
6.29667	92.088	-0.627040
6.29833	92.104	-0.627046
6.30000	92.121	-0.627053
6.30167	92.138	-0.627053
6.30333	92.154	-0.627052
6.30500	92.171	-0.627051
6.30667	92.187	-0.627045
6.30833	92.205	-0.627035
6.31000	92.221	-0.627031
6.31167	92.237	-0.627022
6.31333	92.254	-0.627011
6.31500	92.272	-0.627000
6.31667	92.287	-0.626992
6.31833	92.304	-0.626984
6.32000	92.321	-0.626978
6.32167	92.338	-0.626971
6.32333	92.354	-0.626963
6.32500	92.372	-0.626950
6.32667	92.388	-0.626933
6.32833	92.404	-0.626918
6.33000	92.421	-0.626907
6.33167	92.438	-0.626900
6.33333	92.454	-0.626899
6.33500	92.471	-0.626902
6.33667	92.488	-0.626910
6.33833	92.504	-0.626915
6.34000	92.521	-0.626923
6.34167	92.538	-0.626938
6.34333	92.554	-0.626951
6.34500	92.571	-0.626959
6.34667	92.588	-0.626949
6.34833	92.605	-0.626926
6.35000	92.622	-0.626899
6.35167	92.638	-0.626883
6.35333	92.656	-0.626873
6.35500	92.672	-0.626862
6.35667	92.689	-0.626846
6.35833	92.704	-0.626836
6.36000	92.720	-0.626838
6.36167	92.738	-0.626838
6.36333	92.755	-0.626844
6.36500	92.771	-0.626853
6.36667	92.788	-0.626858
6.36833	92.805	-0.626857
6.37000	92.821	-0.626859
6.37167	92.838	-0.626865
6.37333	92.855	-0.626870
6.37500	92.871	-0.626877
6.37667	92.888	-0.626881
6.37833	92.905	-0.626895
6.38000	92.921	-0.626902
6.38167	92.938	-0.626904
6.38333	92.955	-0.626896
6.38500	92.971	-0.626874
6.38667	92.989	-0.626850
6.38833	93.004	-0.626839
6.39000	93.023	-0.626821
6.39167	93.038	-0.626806
6.39333	93.055	-0.626797
6.39500	93.071	-0.626793
6.39667	93.088	-0.626802
6.39833	93.105	-0.626821
6.40000	93.121	-0.626834
6.40167	93.139	-0.626836
6.40333	93.155	-0.626835
6.40500	93.172	-0.626834
6.40667	93.187	-0.626844
6.40833	93.204	-0.626843
6.41000	93.222	-0.626844
6.41167	93.239	-0.626848
6.41333	93.255	-0.626851
6.41500	93.272	-0.626853
6.41667	93.288	-0.626855
6.41833	93.305	-0.626850
6.42000	93.322	-0.626845
6.42167	93.339	-0.626834
6.42333	93.355	-0.626832
6.42500	93.372	-0.626836
6.42667	93.389	-0.626840
6.42833	93.405	-0.626851
6.43000	93.422	-0.626859
6.43167	93.438	-0.626857
6.43333	93.455	-0.626853
6.43500	93.471	-0.626841
6.43667	93.488	-0.626822
6.43833	93.505	-0.626803
6.44000	93.521	-0.626784
6.44167	93.538	-0.626764
6.44333	93.555	-0.626756
6.44500	93.571	-0.626757
6.44667	93.588	-0.626760
6.44833	93.605	-0.626770
6.45000	93.622	-0.626780
6.45167	93.639	-0.626798
6.45333	93.655	-0.626814
6.45500	93.672	-0.626826
6.45667	93.689	-0.626838
6.45833	93.705	-0.626847
6.46000	93.722	-0.626855
6.46167	93.740	-0.626874
6.46333	93.756	-0.626899
6.46500	93.772	-0.626920
6.46667	93.789	-0.626942
6.46833	93.805	-0.626958
6.47000	93.822	-0.626975
6.47167	93.838	-0.626991
6.47333	93.854	-0.627003
6.47500	93.871	-0.627002
6.47667	93.888	-0.626991
6.47833	93.906	-0.626964
6.48000	93.922	-0.626947
6.48167	93.939	-0.626932
6.48333	93.956	-0.626922
6.48500	93.972	-0.626915
6.48667	93.989	-0.626912
6.48833	94.005	-0.626917
6.49000	94.021	-0.626939
6.49167	94.039	-0.626991
6.49333	94.056	-0.627025
6.49500	94.072	-0.627050
6.49667	94.088	-0.627077
6.49833	94.105	-0.627099
6.50000	94.122	-0.627111
6.50167	94.138	-0.627116
6.50333	94.155	-0.627107
6.50500	94.172	-0.627090
6.50667	94.188	-0.627074
6.50833	94.205	-0.627060
6.51000	94.221	-0.627050
6.51167	94.238	-0.627043
6.51333	94.255	-0.627040
6.51500	94.271	-0.627045
6.51667	94.288	-0.627052
6.51833	94.304	-0.627058
6.52000	94.321	-0.627066
6.52167	94.338	-0.627077
6.52333	94.355	-0.627083
6.52500	94.371	-0.627097
6.52667	94.388	-0.627114
6.52833	94.404	-0.627133
6.53000	94.422	-0.627155
6.53167	94.438	-0.627184
6.53333	94.455	-0.627224
6.53500	94.472	-0.627252
6.53667	94.489	-0.627284
6.53833	94.505	-0.627314
6.54000	94.522	-0.627341
6.54167	94.538	-0.627363
6.54333	94.555	-0.627379
6.54500	94.573	-0.627405
6.54667	94.589	-0.627435
6.54833	94.605	-0.627473
6.55000	94.621	-0.627502
6.55167	94.638	-0.627532
6.55333	94.655	-0.627547
6.55500	94.672	-0.627556
6.55667	94.689	-0.627562
6.55833	94.705	-0.627561
6.56000	94.722	-0.627553
6.56167	94.738	-0.627543
6.56333	94.754	-0.627535
6.56500	94.771	-0.627534
6.56667	94.788	-0.627542
6.56833	94.805	-0.627547
6.57000	94.821	-0.627556
6.57167	94.838	-0.627562
6.57333	94.856	-0.627572
6.57500	94.871	-0.627594
6.57667	94.889	-0.627619
6.57833	94.906	-0.627651
6.58000	94.922	-0.627682
6.58167	94.939	-0.627709
6.58333	94.956	-0.627744
6.58500	94.973	-0.627772
6.58667	94.989	-0.627798
6.58833	95.006	-0.627818
6.59000	95.022	-0.627832
6.59167	95.039	-0.627840
6.59333	95.056	-0.627855
6.59500	95.073	-0.627876
6.59667	95.089	-0.627890
6.59833	95.106	-0.627899
6.60000	95.122	-0.627915
6.60167	95.138	-0.627930
6.60333	95.156	-0.627940
6.60500	95.172	-0.627949
6.60667	95.190	-0.627960
6.60833	95.205	-0.627970
6.61000	95.222	-0.627974
6.61167	95.240	-0.627974
6.61333	95.256	-0.627973
6.61500	95.272	-0.627964
6.61667	95.289	-0.627949
6.61833	95.306	-0.627936
6.62000	95.323	-0.627927
6.62167	95.340	-0.627918
6.62333	95.356	-0.627917
6.62500	95.372	-0.627926
6.62667	95.389	-0.627938
6.62833	95.405	-0.627968
6.63000	95.423	-0.627999
6.63167	95.439	-0.628022
6.63333	95.455	-0.628041
6.63500	95.474	-0.628062
6.63667	95.490	-0.628080
6.63833	95.506	-0.628109
6.64000	95.523	-0.628132
6.64167	95.540	-0.628151
6.64333	95.556	-0.628165
6.64500	95.573	-0.628176
6.64667	95.589	-0.628199
6.64833	95.605	-0.628224
6.65000	95.623	-0.628250
6.65167	95.639	-0.628273
6.65333	95.656	-0.628291
6.65500	95.673	-0.628307
6.65667	95.690	-0.628323
6.65833	95.706	-0.628330
6.66000	95.723	-0.628325
6.66167	95.739	-0.628327
6.66333	95.756	-0.628329
6.66500	95.772	-0.628331
6.66667	95.789	-0.628338
6.66833	95.806	-0.628361
6.67000	95.823	-0.628391
6.67167	95.839	-0.628424
6.67333	95.856	-0.628456
6.67500	95.872	-0.628484
6.67667	95.889	-0.628499
6.67833	95.906	-0.628501
6.68000	95.923	-0.628506
6.68167	95.939	-0.628506
6.68333	95.956	-0.628499
6.68500	95.972	-0.628488
6.68667	95.989	-0.628481
6.68833	96.005	-0.628475
6.69000	96.022	-0.628467
6.69167	96.039	-0.628458
6.69333	96.056	-0.628447
6.69500	96.073	-0.628445
6.69667	96.090	-0.628450
6.69833	96.107	-0.628459
6.70000	96.124	-0.628468
6.70167	96.141	-0.628477
6.70333	96.156	-0.628489
6.70500	96.173	-0.628510
6.70667	96.190	-0.628536
6.70833	96.206	-0.628551
6.71000	96.223	-0.628555
6.71167	96.240	-0.628556
6.71333	96.257	-0.628562
6.71500	96.274	-0.628571
6.71667	96.290	-0.628586
6.71833	96.306	-0.628599
6.72000	96.324	-0.628604
6.72167	96.340	-0.628604
6.72333	96.356	-0.628604
6.72500	96.374	-0.628613
6.72667	96.390	-0.628629
6.72833	96.406	-0.628647
6.73000	96.423	-0.628661
6.73167	96.440	-0.628668
6.73333	96.456	-0.628670
6.73500	96.473	-0.628680
6.73667	96.490	-0.628689
6.73833	96.507	-0.628695
6.74000	96.523	-0.628692
6.74167	96.540	-0.628689
6.74333	96.557	-0.628679
6.74500	96.574	-0.628669
6.74667	96.590	-0.628659
6.74833	96.607	-0.628654
6.75000	96.623	-0.628653
6.75167	96.640	-0.628644
6.75333	96.657	-0.628653
6.75500	96.673	-0.628671
6.75667	96.689	-0.628685
6.75833	96.707	-0.628698
6.76000	96.722	-0.628723
6.76167	96.740	-0.628749
6.76333	96.756	-0.628771
6.76500	96.773	-0.628787
6.76667	96.791	-0.628794
6.76833	96.806	-0.628798
6.77000	96.823	-0.628791
6.77167	96.840	-0.628786
6.77333	96.856	-0.628780
6.77500	96.873	-0.628769
6.77667	96.890	-0.628764
6.77833	96.906	-0.628758
6.78000	96.924	-0.628753
6.78167	96.940	-0.628757
6.78333	96.957	-0.628760
6.78500	96.974	-0.628762
6.78667	96.990	-0.628757
6.78833	97.007	-0.628755
6.79000	97.024	-0.628760
6.79167	97.040	-0.628763
6.79333	97.057	-0.628770
6.79500	97.073	-0.628787
6.79667	97.090	-0.628801
6.79833	97.108	-0.628815
6.80000	97.124	-0.628828
6.80167	97.139	-0.628838
6.80333	97.157	-0.628851
6.80500	97.173	-0.628861
6.80667	97.190	-0.628867
6.80833	97.207	-0.628871
6.81000	97.223	-0.628880
6.81167	97.240	-0.628884
6.81333	97.257	-0.628883
6.81500	97.274	-0.628885
6.81667	97.290	-0.628886
6.81833	97.307	-0.628900
6.82000	97.324	-0.628918
6.82167	97.340	-0.628937
6.82333	97.358	-0.628953
6.82500	97.374	-0.628963
6.82667	97.391	-0.628963
6.82833	97.408	-0.628962
6.83000	97.424	-0.628956
6.83167	97.441	-0.628947
6.83333	97.457	-0.628936
6.83500	97.473	-0.628926
6.83667	97.490	-0.628930
6.83833	97.507	-0.628950
6.84000	97.525	-0.628976
6.84167	97.540	-0.628992
6.84333	97.558	-0.629012
6.84500	97.573	-0.629031
6.84667	97.590	-0.629038
6.84833	97.607	-0.629047
6.85000	97.624	-0.629042
6.85167	97.641	-0.629035
6.85333	97.658	-0.629018
6.85500	97.673	-0.629009
6.85667	97.690	-0.629006
6.85833	97.707	-0.628999
6.86000	97.724	-0.628982
6.86167	97.741	-0.628971
6.86333	97.756	-0.628969
6.86500	97.773	-0.628976
6.86667	97.791	-0.628993
6.86833	97.807	-0.629018
6.87000	97.824	-0.629034
6.87167	97.841	-0.629052
6.87333	97.857	-0.629070
6.87500	97.873	-0.629092
6.87667	97.891	-0.629104
6.87833	97.907	-0.629111
6.88000	97.924	-0.629113
6.88167	97.940	-0.629120
6.88333	97.956	-0.629126
6.88500	97.973	-0.629127
6.88667	97.990	-0.629139
6.88833	98.007	-0.629147
6.89000	98.024	-0.629158
6.89167	98.041	-0.629165
6.89333	98.057	-0.629168
6.89500	98.074	-0.629165
6.89667	98.090	-0.629159
6.89833	98.108	-0.629157
6.90000	98.123	-0.629161
6.90167	98.140	-0.629170
6.90333	98.158	-0.629179
6.90500	98.175	-0.629192
6.90667	98.191	-0.629205
6.90833	98.208	-0.629224
6.91000	98.224	-0.629248
6.91167	98.241	-0.629279
6.91333	98.257	-0.629306
6.91500	98.274	-0.629322
6.91667	98.291	-0.629337
6.91833	98.308	-0.629351
6.92000	98.324	-0.629365
6.92167	98.340	-0.629378
6.92333	98.358	-0.629384
6.92500	98.374	-0.629391
6.92667	98.390	-0.629400
6.92833	98.408	-0.629414
6.93000	98.424	-0.629437
6.93167	98.441	-0.629463
6.93333	98.458	-0.629482
6.93500	98.475	-0.629493
6.93667	98.492	-0.629500
6.93833	98.507	-0.629511
6.94000	98.524	-0.629521
6.94167	98.541	-0.629529
6.94333	98.558	-0.629540
6.94500	98.575	-0.629564
6.94667	98.591	-0.629584
6.94833	98.609	-0.629614
6.95000	98.625	-0.629640
6.95167	98.642	-0.629669
6.95333	98.658	-0.629686
6.95500	98.674	-0.629699
6.95667	98.692	-0.629719
6.95833	98.709	-0.629736
6.96000	98.724	-0.629754
6.96167	98.741	-0.629767
6.96333	98.758	-0.629779
6.96500	98.774	-0.629784
6.96667	98.792	-0.629795
6.96833	98.808	-0.629808
6.97000	98.825	-0.629823
6.97167	98.842	-0.629828
6.97333	98.858	-0.629828
6.97500	98.876	-0.629828
6.97667	98.891	-0.629826
6.97833	98.908	-0.629827
6.98000	98.925	-0.629822
6.98167	98.942	-0.629813
6.98333	98.959	-0.629802
6.98500	98.976	-0.629795
6.98667	98.992	-0.629792
6.98833	99.009	-0.629798
6.99000	99.026	-0.629810
6.99167	99.043	-0.629819
6.99333	99.058	-0.629827
6.99500	99.075	-0.629833
6.99667	99.091	-0.629832
6.99833	99.109	-0.629823
7.00000	99.126	-0.629817
7.00167	99.142	-0.629814
7.00333	99.159	-0.629816
7.00500	99.176	-0.629822
7.00667	99.193	-0.629831
7.00833	99.209	-0.629839
7.01000	99.226	-0.629851
7.01167	99.242	-0.629865
7.01333	99.259	-0.629881
7.01500	99.275	-0.629901
7.01667	99.292	-0.629920
7.01833	99.310	-0.629936
7.02000	99.325	-0.629957
7.02167	99.342	-0.629974
7.02333	99.359	-0.629990
7.02500	99.376	-0.630002
7.02667	99.393	-0.630004
7.02833	99.409	-0.630006
7.03000	99.425	-0.630010
7.03167	99.443	-0.630012
7.03333	99.460	-0.630012
7.03500	99.477	-0.630016
7.03667	99.493	-0.630018
7.03833	99.509	-0.630017
7.04000	99.526	-0.630011
7.04167	99.543	-0.630015
7.04333	99.560	-0.630025
7.04500	99.576	-0.630037
7.04667	99.593	-0.630044
7.04833	99.609	-0.630050
7.05000	99.626	-0.630048
7.05167	99.642	-0.630045
7.05333	99.659	-0.630049
7.05500	99.676	-0.630061
7.05667	99.693	-0.630073
7.05833	99.710	-0.630087
7.06000	99.726	-0.630104
7.06167	99.743	-0.630124
7.06333	99.758	-0.630141
7.06500	99.776	-0.630154
7.06667	99.794	-0.630161
7.06833	99.809	-0.630161
7.07000	99.826	-0.630159
7.07167	99.843	-0.630154
7.07333	99.859	-0.630153
7.07500	99.877	-0.630158
7.07667	99.892	-0.630174
7.07833	99.910	-0.630193
7.08000	99.926	-0.630209
7.08167	99.942	-0.630221
7.08333	99.960	-0.630236
7.08500	99.976	-0.630245
7.08667	99.992	-0.630258
7.08833	100.009	-0.630271
7.09000	100.027	-0.630275
7.09167	100.043	-0.630279
7.09333	100.060	-0.630278
7.09500	100.076	-0.630273
7.09667	100.093	-0.630266
7.09833	100.109	-0.630259
7.10000	100.127	-0.630254
7.10167	100.143	-0.630248
7.10333	100.160	-0.630249
7.10500	100.176	-0.630249
7.10667	100.193	-0.630252
7.10833	100.211	-0.630255
7.11000	100.227	-0.630257
7.11167	100.243	-0.630255
7.11333	100.260	-0.630247
7.11500	100.275	-0.630240
7.11667	100.293	-0.630232
7.11833	100.310	-0.630224
7.12000	100.326	-0.630224
7.12167	100.343	-0.630227
7.12333	100.359	-0.630237
7.12500	100.377	-0.630261
7.12667	100.392	-0.630286
7.12833	100.409	-0.630306
7.13000	100.426	-0.630318
7.13167	100.443	-0.630320
7.13333	100.460	-0.630321
7.13500	100.476	-0.630315
7.13667	100.494	-0.630310
7.13833	100.510	-0.630299
7.14000	100.526	-0.630281
7.14167	100.543	-0.630264
7.14333	100.559	-0.630262
7.14500	100.577	-0.630267
7.14667	100.593	-0.630279
7.14833	100.609	-0.630286
7.15000	100.627	-0.630292
7.15167	100.642	-0.630305
7.15333	100.658	-0.630317
7.15500	100.675	-0.630332
7.15667	100.692	-0.630349
7.15833	100.709	-0.630361
7.16000	100.726	-0.630376
7.16167	100.743	-0.630392
7.16333	100.760	-0.630405
7.16500	100.777	-0.630414
7.16667	100.793	-0.630424
7.16833	100.810	-0.630430
7.17000	100.826	-0.630434
7.17167	100.843	-0.630439
7.17333	100.860	-0.630433
7.17500	100.876	-0.630438
7.17667	100.892	-0.630431
7.17833	100.909	-0.630425
7.18000	100.926	-0.630419
7.18167	100.943	-0.630415
7.18333	100.960	-0.630406
7.18500	100.977	-0.630404
7.18667	100.994	-0.630397
7.18833	101.010	-0.630395
7.19000	101.027	-0.630398
7.19167	101.044	-0.630397
7.19333	101.060	-0.630402
7.19500	101.077	-0.630395
7.19667	101.093	-0.630386
7.19833	101.110	-0.630378
7.20000	101.126	-0.630367
7.20167	101.143	-0.630360
7.20333	101.159	-0.630358
7.20500	101.176	-0.630362
7.20667	101.194	-0.630372
7.20833	101.210	-0.630395
7.21000	101.227	-0.630422
7.21167	101.243	-0.630460
7.21333	101.260	-0.630498
7.21500	101.276	-0.630570
7.21667	101.293	-0.630654
7.21833	101.310	-0.630725
7.22000	101.326	-0.630764
7.22167	101.343	-0.630787
7.22333	101.360	-0.630810
7.22500	101.376	-0.630819
7.22667	101.392	-0.630829
7.22833	101.409	-0.630833
7.23000	101.427	-0.630836
7.23167	101.442	-0.630840
7.23333	101.458	-0.630842
7.23500	101.476	-0.630848
7.23667	101.492	-0.630854
7.23833	101.510	-0.630857
7.24000	101.526	-0.630856
7.24167	101.543	-0.630857
7.24333	101.560	-0.630857
7.24500	101.576	-0.630867
7.24667	101.592	-0.630879
7.24833	101.610	-0.630886
7.25000	101.627	-0.630898
7.25167	101.643	-0.630908
7.25333	101.660	-0.630916
7.25500	101.676	-0.630920
7.25667	101.693	-0.630919
7.25833	101.710	-0.630919
7.26000	101.726	-0.630915
7.26167	101.743	-0.630912
7.26333	101.760	-0.630919
7.26500	101.776	-0.630931
7.26667	101.793	-0.630950
7.26833	101.810	-0.630972
7.27000	101.826	-0.631002
7.27167	101.843	-0.631024
7.27333	101.860	-0.631035
7.27500	101.876	-0.631032
7.27667	101.893	-0.631021
7.27833	101.910	-0.631006
7.28000	101.927	-0.630990
7.28167	101.943	-0.630978
7.28333	101.960	-0.630976
7.28500	101.976	-0.630985
7.28667	101.993	-0.631008
7.28833	102.009	-0.631044
7.29000	102.026	-0.631094
7.29167	102.043	-0.631147
7.29333	102.060	-0.631200
7.29500	102.077	-0.631226
7.29667	102.094	-0.631239
7.29833	102.111	-0.631252
7.30000	102.127	-0.631264
7.30167	102.143	-0.631266
7.30333	102.160	-0.631265
7.30500	102.177	-0.631264
7.30667	102.193	-0.631262
7.30833	102.210	-0.631260
7.31000	102.227	-0.631260
7.31167	102.244	-0.631269
7.31333	102.260	-0.631286
7.31500	102.278	-0.631291
7.31667	102.294	-0.631292
7.31833	102.311	-0.631292
7.32000	102.327	-0.631277
7.32167	102.343	-0.631273
7.32333	102.360	-0.631265
7.32500	102.376	-0.631263
7.32667	102.394	-0.631270
7.32833	102.410	-0.631280
7.33000	102.427	-0.631297
7.33167	102.443	-0.631316
7.33333	102.460	-0.631333
7.33500	102.477	-0.631349
7.33667	102.494	-0.631359
7.33833	102.510	-0.631353
7.34000	102.527	-0.631355
7.34167	102.543	-0.631357
7.34333	102.560	-0.631355
7.34500	102.577	-0.631356
7.34667	102.594	-0.631353
7.34833	102.611	-0.631359
7.35000	102.628	-0.631354
7.35167	102.644	-0.631351
7.35333	102.661	-0.631349
7.35500	102.678	-0.631350
7.35667	102.695	-0.631351
7.35833	102.711	-0.631359
7.36000	102.728	-0.631375
7.36167	102.743	-0.631391
7.36333	102.761	-0.631406
7.36500	102.778	-0.631420
7.36667	102.794	-0.631436
7.36833	102.811	-0.631439
7.37000	102.827	-0.631440
7.37167	102.844	-0.631435
7.37333	102.861	-0.631428
7.37500	102.878	-0.631414
7.37667	102.894	-0.631395
7.37833	102.911	-0.631386
7.38000	102.928	-0.631378
7.38167	102.944	-0.631370
7.38333	102.961	-0.631369
7.38500	102.978	-0.631376
7.38667	102.995	-0.631384
7.38833	103.011	-0.631400
7.39000	103.028	-0.631422
7.39167	103.044	-0.631445
7.39333	103.061	-0.631459
7.39500	103.077	-0.631476
7.39667	103.094	-0.631503
7.39833	103.111	-0.631525
7.40000	103.128	-0.631540
7.40167	103.143	-0.631552
7.40333	103.160	-0.631560
7.40500	103.178	-0.631566
7.40667	103.195	-0.631563
7.40833	103.210	-0.631552
7.41000	103.227	-0.631533
7.41167	103.243	-0.631486
7.41333	103.259	-0.631440
7.41500	103.277	-0.631422
7.41667	103.293	-0.631415
7.41833	103.310	-0.631411
7.42000	103.327	-0.631420
7.42167	103.344	-0.631439
7.42333	103.360	-0.631466
7.42500	103.376	-0.631492
7.42667	103.393	-0.631518
7.42833	103.410	-0.631536
7.43000	103.426	-0.631544
7.43167	103.444	-0.631543
7.43333	103.461	-0.631543
7.43500	103.477	-0.631541
7.43667	103.493	-0.631537
7.43833	103.510	-0.631536
7.44000	103.527	-0.631543
7.44167	103.544	-0.631547
7.44333	103.560	-0.631552
7.44500	103.577	-0.631560
7.44667	103.594	-0.631564
7.44833	103.610	-0.631568
7.45000	103.628	-0.631580
7.45167	103.644	-0.631591
7.45333	103.661	-0.631601
7.45500	103.677	-0.631602
7.45667	103.693	-0.631601
7.45833	103.710	-0.631601
7.46000	103.726	-0.631608
7.46167	103.743	-0.631625
7.46333	103.761	-0.631647
7.46500	103.777	-0.631663
7.46667	103.794	-0.631688
7.46833	103.810	-0.631713
7.47000	103.827	-0.631738
7.47167	103.843	-0.631760
7.47333	103.861	-0.631779
7.47500	103.877	-0.631788
7.47667	103.894	-0.631795
7.47833	103.910	-0.631802
7.48000	103.926	-0.631818
7.48167	103.943	-0.631835
7.48333	103.960	-0.631845
7.48500	103.977	-0.631860
7.48667	103.993	-0.631883
7.48833	104.010	-0.631904
7.49000	104.027	-0.631922
7.49167	104.043	-0.631936
7.49333	104.060	-0.631949
7.49500	104.077	-0.631962
7.49667	104.094	-0.631971
7.49833	104.110	-0.631978
7.50000	104.127	-0.631985
7.50167	104.144	-0.631988
7.50333	104.160	-0.631993
7.50500	104.177	-0.631999
7.50667	104.193	-0.632001
7.50833	104.209	-0.632014
7.51000	104.226	-0.632039
7.51167	104.244	-0.632068
7.51333	104.260	-0.632101
7.51500	104.276	-0.632130
7.51667	104.294	-0.632156
7.51833	104.310	-0.632180
7.52000	104.326	-0.632195
7.52167	104.343	-0.632206
7.52333	104.360	-0.632213
7.52500	104.377	-0.632210
7.52667	104.394	-0.632212
7.52833	104.410	-0.632227
7.53000	104.427	-0.632247
7.53167	104.444	-0.632271
7.53333	104.460	-0.632293
7.53500	104.477	-0.632314
7.53667	104.494	-0.632335
7.53833	104.511	-0.632346
7.54000	104.528	-0.632353
7.54167	104.544	-0.632356
7.54333	104.560	-0.632353
7.54500	104.577	-0.632357
7.54667	104.593	-0.632364
7.54833	104.610	-0.632376
7.55000	104.626	-0.632384
7.55167	104.644	-0.632393
7.55333	104.660	-0.632413
7.55500	104.678	-0.632434
7.55667	104.693	-0.632441
7.55833	104.711	-0.632450
7.56000	104.727	-0.632461
7.56167	104.744	-0.632474
7.56333	104.761	-0.632495
7.56500	104.778	-0.632508
7.56667	104.795	-0.632520
7.56833	104.811	-0.632529
7.57000	104.827	-0.632523
7.57167	104.844	-0.632517
7.57333	104.861	-0.632505
7.57500	104.877	-0.632476
7.57667	104.894	-0.632426
7.57833	104.910	-0.632404
7.58000	104.927	-0.632387
7.58167	104.944	-0.632378
7.58333	104.960	-0.632374
7.58500	104.978	-0.632378
7.58667	104.994	-0.632386
7.58833	105.011	-0.632399
7.59000	105.027	-0.632417
7.59167	105.044	-0.632437
7.59333	105.061	-0.632466
7.59500	105.077	-0.632496
7.59667	105.094	-0.632530
7.59833	105.110	-0.632556
7.60000	105.127	-0.632574
7.60167	105.143	-0.632585
7.60333	105.160	-0.632591
7.60500	105.177	-0.632590
7.60667	105.194	-0.632585
7.60833	105.210	-0.632573
7.61000	105.227	-0.632563
7.61167	105.243	-0.632562
7.61333	105.260	-0.632575
7.61500	105.277	-0.632593
7.61667	105.295	-0.632616
7.61833	105.311	-0.632634
7.62000	105.327	-0.632654
7.62167	105.345	-0.632664
7.62333	105.361	-0.632669
7.62500	105.377	-0.632672
7.62667	105.395	-0.632674
7.62833	105.410	-0.632670
7.63000	105.428	-0.632670
7.63167	105.444	-0.632672
7.63333	105.461	-0.632670
7.63500	105.478	-0.632670
7.63667	105.494	-0.632673
7.63833	105.510	-0.632669
7.64000	105.527	-0.632673
7.64167	105.544	-0.632683
7.64333	105.561	-0.632696
7.64500	105.577	-0.632714
7.64667	105.595	-0.632730
7.64833	105.612	-0.632755
7.65000	105.628	-0.632786
7.65167	105.643	-0.632817
7.65333	105.660	-0.632847
7.65500	105.676	-0.632875
7.65667	105.693	-0.632888
7.65833	105.710	-0.632901
7.66000	105.727	-0.632902
7.66167	105.744	-0.632896
7.66333	105.759	-0.632882
7.66500	105.777	-0.632867
7.66667	105.793	-0.632854
7.66833	105.811	-0.632844
7.67000	105.827	-0.632833
7.67167	105.844	-0.632826
7.67333	105.860	-0.632832
7.67500	105.877	-0.632849
7.67667	105.894	-0.632873
7.67833	105.910	-0.632901
7.68000	105.927	-0.632938
7.68167	105.944	-0.632962
7.68333	105.961	-0.632976
7.68500	105.977	-0.632985
7.68667	105.994	-0.632982
7.68833	106.011	-0.632978
7.69000	106.027	-0.632977
7.69167	106.043	-0.632973
7.69333	106.060	-0.632967
7.69500	106.076	-0.632957
7.69667	106.093	-0.632959
7.69833	106.110	-0.632967
7.70000	106.127	-0.632978
7.70167	106.143	-0.632992
7.70333	106.160	-0.633018
7.70500	106.178	-0.633040
7.70667	106.194	-0.633074
7.70833	106.211	-0.633173
7.71000	106.228	-0.633249
7.71167	106.244	-0.633283
7.71333	106.261	-0.633308
7.71500	106.277	-0.633325
7.71667	106.295	-0.633334
7.71833	106.310	-0.633339
7.72000	106.328	-0.633344
7.72167	106.343	-0.633354
7.72333	106.360	-0.633363
7.72500	106.377	-0.633377
7.72667	106.394	-0.633398
7.72833	106.411	-0.633421
7.73000	106.427	-0.633438
7.73167	106.445	-0.633442
7.73333	106.461	-0.633437
7.73500	106.477	-0.633441
7.73667	106.494	-0.633449
7.73833	106.511	-0.633456
7.74000	106.528	-0.633457
7.74167	106.545	-0.633462
7.74333	106.562	-0.633471
7.74500	106.579	-0.633490
7.74667	106.595	-0.633519
7.74833	106.612	-0.633548
7.75000	106.629	-0.633569
7.75167	106.645	-0.633586
7.75333	106.661	-0.633605
7.75500	106.678	-0.633624
7.75667	106.695	-0.633635
7.75833	106.712	-0.633641
7.76000	106.728	-0.633651
7.76167	106.745	-0.633657
7.76333	106.761	-0.633667
7.76500	106.779	-0.633683
7.76667	106.795	-0.633702
7.76833	106.811	-0.633726
7.77000	106.829	-0.633750
7.77167	106.845	-0.633778
7.77333	106.862	-0.633808
7.77500	106.879	-0.633831
7.77667	106.896	-0.633845
7.77833	106.912	-0.633862
7.78000	106.928	-0.633870
7.78167	106.945	-0.633878
7.78333	106.961	-0.633884
7.78500	106.978	-0.633892
7.78667	106.995	-0.633905
7.78833	107.012	-0.633925
7.79000	107.028	-0.633948
7.79167	107.046	-0.633981
7.79333	107.063	-0.634010
7.79500	107.078	-0.634036
7.79667	107.095	-0.634058
7.79833	107.112	-0.634085
7.80000	107.128	-0.634106
7.80167	107.144	-0.634127
7.80333	107.161	-0.634154
7.80500	107.178	-0.634185
7.80667	107.195	-0.634219
7.80833	107.211	-0.634253
7.81000	107.229	-0.634286
7.81167	107.245	-0.634322
7.81333	107.262	-0.634359
7.81500	107.279	-0.634393
7.81667	107.295	-0.634422
7.81833	107.311	-0.634450
7.82000	107.328	-0.634478
7.82167	107.344	-0.634516
7.82333	107.360	-0.634544
7.82500	107.378	-0.634565
7.82667	107.395	-0.634577
7.82833	107.412	-0.634587
7.83000	107.429	-0.634583
7.83167	107.445	-0.634583
7.83333	107.462	-0.634584
7.83500	107.477	-0.634582
7.83667	107.494	-0.634594
7.83833	107.511	-0.634605
7.84000	107.528	-0.634618
7.84167	107.545	-0.634622
7.84333	107.561	-0.634628
7.84500	107.578	-0.634630
7.84667	107.595	-0.634636
7.84833	107.612	-0.634645
7.85000	107.628	-0.634653
7.85167	107.646	-0.634671
7.85333	107.662	-0.634690
7.85500	107.679	-0.634712
7.85667	107.695	-0.634743
7.85833	107.712	-0.634767
7.86000	107.728	-0.634792
7.86167	107.745	-0.634808
7.86333	107.762	-0.634823
7.86500	107.779	-0.634830
7.86667	107.795	-0.634830
7.86833	107.813	-0.634833
7.87000	107.829	-0.634841
7.87167	107.846	-0.634852
7.87333	107.863	-0.634866
7.87500	107.879	-0.634888
7.87667	107.895	-0.634908
7.87833	107.912	-0.634936
7.88000	107.929	-0.634960
7.88167	107.946	-0.634976
7.88333	107.963	-0.634988
7.88500	107.979	-0.634979
7.88667	107.995	-0.634964
7.88833	108.012	-0.634935
7.89000	108.029	-0.634906
7.89167	108.046	-0.634890
7.89333	108.062	-0.634880
7.89500	108.079	-0.634871
7.89667	108.097	-0.634869
7.89833	108.113	-0.634863
7.90000	108.129	-0.634859
7.90167	108.146	-0.634867
7.90333	108.162	-0.634874
7.90500	108.179	-0.634875
7.90667	108.195	-0.634882
7.90833	108.212	-0.634886
7.91000	108.229	-0.634893
7.91167	108.245	-0.634898
7.91333	108.261	-0.634908
7.91500	108.279	-0.634922
7.91667	108.296	-0.634929
7.91833	108.313	-0.634924
7.92000	108.329	-0.634919
7.92167	108.345	-0.634916
7.92333	108.363	-0.634908
7.92500	108.379	-0.634897
7.92667	108.395	-0.634894
7.92833	108.412	-0.634885
7.93000	108.429	-0.634874
7.93167	108.446	-0.634870
7.93333	108.461	-0.634868
7.93500	108.479	-0.634867
7.93667	108.495	-0.634866
7.93833	108.513	-0.634870
7.94000	108.529	-0.634868
7.94167	108.546	-0.634873
7.94333	108.561	-0.634877
7.94500	108.579	-0.634888
7.94667	108.596	-0.634898
7.94833	108.613	-0.634910
7.95000	108.629	-0.634920
7.95167	108.646	-0.634926
7.95333	108.663	-0.634926
7.95500	108.679	-0.634929
7.95667	108.696	-0.634936
7.95833	108.713	-0.634942
7.96000	108.730	-0.634940
7.96167	108.746	-0.634943
7.96333	108.763	-0.634956
7.96500	108.778	-0.634964
7.96667	108.796	-0.634968
7.96833	108.812	-0.634961
7.97000	108.829	-0.634946
7.97167	108.846	-0.634926
7.97333	108.863	-0.634910
7.97500	108.880	-0.634898
7.97667	108.896	-0.634889
7.97833	108.913	-0.634871
7.98000	108.929	-0.634860
7.98167	108.946	-0.634857
7.98333	108.962	-0.634855
7.98500	108.979	-0.634861
7.98667	108.996	-0.634875
7.98833	109.012	-0.634888
7.99000	109.030	-0.634896
7.99167	109.046	-0.634900
7.99333	109.063	-0.634908
7.99500	109.079	-0.634909
7.99667	109.097	-0.634899
7.99833	109.113	-0.634883
8.00000	109.130	-0.634874
8.00167	109.145	-0.634867
8.00333	109.162	-0.634871
8.00500	109.180	-0.634885
8.00667	109.196	-0.634898
8.00833	109.213	-0.634915
8.01000	109.229	-0.634930
8.01167	109.246	-0.634942
8.01333	109.263	-0.634945
8.01500	109.280	-0.634935
8.01667	109.296	-0.634928
8.01833	109.313	-0.634925
8.02000	109.329	-0.634925
8.02167	109.346	-0.634928
8.02333	109.362	-0.634930
8.02500	109.379	-0.634935
8.02667	109.395	-0.634948
8.02833	109.413	-0.634966
8.03000	109.430	-0.634985
8.03167	109.446	-0.634999
8.03333	109.462	-0.635005
8.03500	109.480	-0.635020
8.03667	109.497	-0.635038
8.03833	109.512	-0.635063
8.04000	109.528	-0.635086
8.04167	109.545	-0.635106
8.04333	109.563	-0.635120
8.04500	109.579	-0.635130
8.04667	109.596	-0.635138
8.04833	109.613	-0.635151
8.05000	109.630	-0.635162
8.05167	109.646	-0.635173
8.05333	109.664	-0.635186
8.05500	109.680	-0.635206
8.05667	109.697	-0.635225
8.05833	109.713	-0.635242
8.06000	109.730	-0.635257
8.06167	109.747	-0.635267
8.06333	109.763	-0.635275
8.06500	109.780	-0.635268
8.06667	109.796	-0.635251
8.06833	109.813	-0.635222
8.07000	109.829	-0.635151
8.07167	109.846	-0.635091
8.07333	109.864	-0.635070
8.07500	109.880	-0.635044
8.07667	109.897	-0.635025
8.07833	109.913	-0.635013
8.08000	109.930	-0.635009
8.08167	109.947	-0.635021
8.08333	109.964	-0.635030
8.08500	109.980	-0.635044
8.08667	109.997	-0.635068
8.08833	110.012	-0.635084
8.09000	110.030	-0.635096
8.09167	110.046	-0.635105
8.09333	110.063	-0.635111
8.09500	110.080	-0.635100
8.09667	110.097	-0.635087
8.09833	110.113	-0.635074
8.10000	110.130	-0.635064
8.10167	110.146	-0.635060
8.10333	110.162	-0.635071
8.10500	110.179	-0.635088
8.10667	110.196	-0.635112
8.10833	110.213	-0.635161
8.11000	110.230	-0.635198
8.11167	110.247	-0.635227
8.11333	110.264	-0.635246
8.11500	110.280	-0.635253
8.11667	110.296	-0.635262
8.11833	110.313	-0.635270
8.12000	110.330	-0.635275
8.12167	110.346	-0.635281
8.12333	110.363	-0.635275
8.12500	110.380	-0.635260
8.12667	110.396	-0.635244
8.12833	110.413	-0.635229
8.13000	110.429	-0.635216
8.13167	110.446	-0.635209
8.13333	110.463	-0.635206
8.13500	110.480	-0.635217
8.13667	110.496	-0.635237
8.13833	110.513	-0.635255
8.14000	110.529	-0.635275
8.14167	110.547	-0.635291
8.14333	110.564	-0.635293
8.14500	110.580	-0.635291
8.14667	110.597	-0.635291
8.14833	110.613	-0.635290
8.15000	110.630	-0.635286
8.15167	110.646	-0.635295
8.15333	110.663	-0.635306
8.15500	110.679	-0.635321
8.15667	110.696	-0.635331
8.15833	110.714	-0.635346
8.16000	110.730	-0.635361
8.16167	110.747	-0.635375
8.16333	110.764	-0.635387
8.16500	110.779	-0.635393
8.16667	110.797	-0.635405
8.16833	110.813	-0.635416
8.17000	110.831	-0.635436
8.17167	110.847	-0.635449
8.17333	110.863	-0.635459
8.17500	110.880	-0.635469
8.17667	110.896	-0.635480
8.17833	110.914	-0.635485
8.18000	110.930	-0.635497
8.18167	110.947	-0.635510
8.18333	110.963	-0.635520
8.18500	110.980	-0.635538
8.18667	110.997	-0.635555
8.18833	111.014	-0.635576
8.19000	111.030	-0.635594
8.19167	111.048	-0.635608
8.19333	111.064	-0.635626
8.19500	111.080	-0.635638
8.19667	111.098	-0.635641
8.19833	111.113	-0.635643
8.20000	111.130	-0.635647
8.20167	111.147	-0.635649
8.20333	111.164	-0.635656
8.20500	111.181	-0.635658
8.20667	111.197	-0.635668
8.20833	111.213	-0.635673
8.21000	111.231	-0.635686
8.21167	111.247	-0.635707
8.21333	111.263	-0.635731
8.21500	111.281	-0.635754
8.21667	111.297	-0.635782
8.21833	111.314	-0.635811
8.22000	111.330	-0.635833
8.22167	111.348	-0.635852
8.22333	111.364	-0.635859
8.22500	111.381	-0.635866
8.22667	111.398	-0.635866
8.22833	111.414	-0.635871
8.23000	111.430	-0.635879
8.23167	111.447	-0.635891
8.23333	111.464	-0.635910
8.23500	111.480	-0.635932
8.23667	111.498	-0.635958
8.23833	111.514	-0.635978
8.24000	111.531	-0.635999
8.24167	111.548	-0.636013
8.24333	111.564	-0.636023
8.24500	111.582	-0.636028
8.24667	111.598	-0.636017
8.24833	111.614	-0.636001
8.25000	111.630	-0.635988
8.25167	111.648	-0.635978
8.25333	111.664	-0.635969
8.25500	111.682	-0.635963
8.25667	111.698	-0.635968
8.25833	111.715	-0.635980
8.26000	111.731	-0.636008
8.26167	111.748	-0.636032
8.26333	111.765	-0.636060
8.26500	111.782	-0.636076
8.26667	111.798	-0.636085
8.26833	111.815	-0.636097
8.27000	111.831	-0.636117
8.27167	111.847	-0.636128
8.27333	111.864	-0.636131
8.27500	111.881	-0.636126
8.27667	111.899	-0.636124
8.27833	111.914	-0.636126
8.28000	111.930	-0.636125
8.28167	111.948	-0.636122
8.28333	111.965	-0.636120
8.28500	111.982	-0.636121
8.28667	111.998	-0.636127
8.28833	112.015	-0.636141
8.29000	112.031	-0.636159
8.29167	112.048	-0.636174
8.29333	112.065	-0.636177
8.29500	112.081	-0.636181
8.29667	112.098	-0.636199
8.29833	112.115	-0.636216
8.30000	112.131	-0.636224
8.30167	112.148	-0.636223
8.30333	112.165	-0.636217
8.30500	112.180	-0.636214
8.30667	112.198	-0.636210
8.30833	112.214	-0.636205
8.31000	112.231	-0.636197
8.31167	112.247	-0.636166
8.31333	112.263	-0.636144
8.31500	112.281	-0.636134
8.31667	112.298	-0.636141
8.31833	112.314	-0.636159
8.32000	112.332	-0.636184
8.32167	112.348	-0.636208
8.32333	112.365	-0.636234
8.32500	112.382	-0.636256
8.32667	112.398	-0.636274
8.32833	112.415	-0.636296
8.33000	112.431	-0.636309
8.33167	112.448	-0.636312
8.33333	112.465	-0.636309
8.33500	112.481	-0.636300
8.33667	112.498	-0.636289
8.33833	112.514	-0.636276
8.34000	112.532	-0.636265
8.34167	112.548	-0.636253
8.34333	112.564	-0.636242
8.34500	112.580	-0.636230
8.34667	112.598	-0.636229
8.34833	112.614	-0.636233
8.35000	112.631	-0.636248
8.35167	112.647	-0.636269
8.35333	112.664	-0.636285
8.35500	112.680	-0.636304
8.35667	112.698	-0.636332
8.35833	112.714	-0.636358
8.36000	112.732	-0.636382
8.36167	112.749	-0.636400
8.36333	112.764	-0.636416
8.36500	112.781	-0.636424
8.36667	112.797	-0.636428
8.36833	112.813	-0.636429
8.37000	112.831	-0.636427
8.37167	112.848	-0.636410
8.37333	112.865	-0.636392
8.37500	112.881	-0.636380
8.37667	112.898	-0.636376
8.37833	112.914	-0.636378
8.38000	112.931	-0.636389
8.38167	112.948	-0.636402
8.38333	112.964	-0.636418
8.38500	112.981	-0.636433
8.38667	112.999	-0.636456
8.38833	113.015	-0.636474
8.39000	113.033	-0.636486
8.39167	113.048	-0.636493
8.39333	113.066	-0.636501
8.39500	113.082	-0.636521
8.39667	113.098	-0.636553
8.39833	113.116	-0.636584
8.40000	113.131	-0.636611
8.40167	113.149	-0.636631
8.40333	113.165	-0.636643
8.40500	113.183	-0.636658
8.40667	113.199	-0.636658
8.40833	113.216	-0.636656
8.41000	113.232	-0.636644
8.41167	113.248	-0.636628
8.41333	113.265	-0.636620
8.41500	113.282	-0.636616
8.41667	113.299	-0.636617
8.41833	113.315	-0.636621
8.42000	113.331	-0.636630
8.42167	113.348	-0.636648
8.42333	113.365	-0.636677
8.42500	113.381	-0.636698
8.42667	113.398	-0.636722
8.42833	113.415	-0.636751
8.43000	113.431	-0.636777
8.43167	113.449	-0.636799
8.43333	113.464	-0.636813
8.43500	113.482	-0.636821
8.43667	113.499	-0.636822
8.43833	113.514	-0.636825
8.44000	113.532	-0.636833
8.44167	113.549	-0.636852
8.44333	113.565	-0.636870
8.44500	113.581	-0.636885
8.44667	113.598	-0.636899
8.44833	113.615	-0.636917
8.45000	113.632	-0.636936
8.45167	113.648	-0.636951
8.45333	113.665	-0.636958
8.45500	113.683	-0.636950
8.45667	113.699	-0.636946
8.45833	113.715	-0.636940
8.46000	113.732	-0.636938
8.46167	113.748	-0.636942
8.46333	113.764	-0.636953
8.46500	113.781	-0.636964
8.46667	113.799	-0.636979
8.46833	113.815	-0.637006
8.47000	113.831	-0.637039
8.47167	113.848	-0.637078
8.47333	113.865	-0.637104
8.47500	113.881	-0.637115
8.47667	113.898	-0.637118
8.47833	113.915	-0.637117
8.48000	113.931	-0.637119
8.48167	113.948	-0.637124
8.48333	113.966	-0.637131
8.48500	113.982	-0.637133
8.48667	113.999	-0.637142
8.48833	114.016	-0.637162
8.49000	114.032	-0.637197
8.49167	114.049	-0.637231
8.49333	114.065	-0.637255
8.49500	114.082	-0.637265
8.49667	114.099	-0.637264
8.49833	114.115	-0.637258
8.50000	114.131	-0.637252
8.50167	114.149	-0.637239
8.50333	114.164	-0.637225
8.50500	114.181	-0.637213
8.50667	114.198	-0.637200
8.50833	114.215	-0.637199
8.51000	114.231	-0.637198
8.51167	114.250	-0.637198
8.51333	114.266	-0.637207
8.51500	114.281	-0.637216
8.51667	114.298	-0.637228
8.51833	114.315	-0.637247
8.52000	114.332	-0.637257
8.52167	114.350	-0.637266
8.52333	114.365	-0.637286
8.52500	114.381	-0.637305
8.52667	114.400	-0.637331
8.52833	114.415	-0.637356
8.53000	114.432	-0.637370
8.53167	114.449	-0.637379
8.53333	114.465	-0.637380
8.53500	114.482	-0.637381
8.53667	114.499	-0.637385
8.53833	114.515	-0.637383
8.54000	114.532	-0.637385
8.54167	114.549	-0.637403
8.54333	114.565	-0.637428
8.54500	114.582	-0.637456
8.54667	114.598	-0.637495
8.54833	114.615	-0.637523
8.55000	114.632	-0.637550
8.55167	114.648	-0.637570
8.55333	114.665	-0.637584
8.55500	114.682	-0.637595
8.55667	114.698	-0.637596
8.55833	114.715	-0.637597
8.56000	114.732	-0.637602
8.56167	114.748	-0.637612
8.56333	114.765	-0.637623
8.56500	114.783	-0.637631
8.56667	114.799	-0.637630
8.56833	114.815	-0.637633
8.57000	114.832	-0.637640
8.57167	114.849	-0.637643
8.57333	114.866	-0.637652
8.57500	114.882	-0.637663
8.57667	114.900	-0.637672
8.57833	114.915	-0.637688
8.58000	114.932	-0.637708
8.58167	114.948	-0.637738
8.58333	114.965	-0.637765
8.58500	114.982	-0.637794
8.58667	114.999	-0.637820
8.58833	115.016	-0.637837
8.59000	115.032	-0.637845
8.59167	115.048	-0.637849
8.59333	115.065	-0.637847
8.59500	115.083	-0.637843
8.59667	115.098	-0.637840
8.59833	115.116	-0.637846
8.60000	115.133	-0.637860
8.60167	115.149	-0.637874
8.60333	115.165	-0.637898
8.60500	115.182	-0.637926
8.60667	115.199	-0.637956
8.60833	115.215	-0.637979
8.61000	115.232	-0.638006
8.61167	115.249	-0.638020
8.61333	115.266	-0.638028
8.61500	115.283	-0.638037
8.61667	115.300	-0.638060
8.61833	115.316	-0.638083
8.62000	115.333	-0.638109
8.62167	115.349	-0.638124
8.62333	115.366	-0.638133
8.62500	115.383	-0.638142
8.62667	115.399	-0.638155
8.62833	115.415	-0.638174
8.63000	115.432	-0.638184
8.63167	115.449	-0.638191
8.63333	115.466	-0.638194
8.63500	115.483	-0.638204
8.63667	115.500	-0.638212
8.63833	115.516	-0.638223
8.64000	115.533	-0.638229
8.64167	115.550	-0.638232
8.64333	115.566	-0.638227
8.64500	115.583	-0.638232
8.64667	115.599	-0.638244
8.64833	115.615	-0.638254
8.65000	115.632	-0.638269
8.65167	115.649	-0.638285
8.65333	115.667	-0.638305
8.65500	115.683	-0.638323
8.65667	115.699	-0.638339
8.65833	115.716	-0.638353
8.66000	115.732	-0.638367
8.66167	115.750	-0.638374
8.66333	115.767	-0.638380
8.66500	115.783	-0.638383
8.66667	115.800	-0.638385
8.66833	115.816	-0.638386
8.67000	115.833	-0.638390
8.67167	115.850	-0.638398
8.67333	115.866	-0.638407
8.67500	115.883	-0.638421
8.67667	115.900	-0.638438
8.67833	115.917	-0.638456
8.68000	115.933	-0.638478
8.68167	115.949	-0.638503
8.68333	115.965	-0.638524
8.68500	115.982	-0.638542
8.68667	116.000	-0.638555
8.68833	116.017	-0.638569
8.69000	116.033	-0.638592
8.69167	116.051	-0.638620
8.69333	116.067	-0.638645
8.69500	116.084	-0.638679
8.69667	116.101	-0.638715
8.69833	116.117	-0.638748
8.70000	116.134	-0.638784
8.70167	116.151	-0.638813
8.70333	116.167	-0.638830
8.70500	116.182	-0.638839
8.70667	116.200	-0.638836
8.70833	116.217	-0.638830
8.71000	116.233	-0.638827
8.71167	116.250	-0.638823
8.71333	116.266	-0.638817
8.71500	116.282	-0.638813
8.71667	116.300	-0.638809
8.71833	116.316	-0.638820
8.72000	116.333	-0.638844
8.72167	116.349	-0.638873
8.72333	116.367	-0.638908
8.72500	116.384	-0.638941
8.72667	116.401	-0.638962
8.72833	116.417	-0.638978
8.73000	116.433	-0.638989
8.73167	116.450	-0.639001
8.73333	116.467	-0.639004
8.73500	116.484	-0.638997
8.73667	116.500	-0.638987
8.73833	116.517	-0.638977
8.74000	116.534	-0.638967
8.74167	116.551	-0.638964
8.74333	116.566	-0.638979
8.74500	116.584	-0.638996
8.74667	116.601	-0.639016
8.74833	116.617	-0.639027
8.75000	116.633	-0.639040
8.75167	116.650	-0.639059
8.75333	116.667	-0.639080
8.75500	116.683	-0.639098
8.75667	116.700	-0.639110
8.75833	116.717	-0.639113
8.76000	116.733	-0.639107
8.76167	116.749	-0.639107
8.76333	116.767	-0.639114
8.76500	116.783	-0.639117
8.76667	116.801	-0.639120
8.76833	116.817	-0.639118
8.77000	116.834	-0.639128
8.77167	116.850	-0.639145
8.77333	116.867	-0.639163
8.77500	116.883	-0.639184
8.77667	116.900	-0.639199
8.77833	116.917	-0.639207
8.78000	116.934	-0.639228
8.78167	116.950	-0.639253
8.78333	116.965	-0.639269
8.78500	116.983	-0.639289
8.78667	117.000	-0.639306
8.78833	117.017	-0.639327
8.79000	117.034	-0.639347
8.79167	117.050	-0.639367
8.79333	117.067	-0.639385
8.79500	117.084	-0.639396
8.79667	117.100	-0.639405
8.79833	117.117	-0.639417
8.80000	117.134	-0.639432
8.80167	117.150	-0.639442
8.80333	117.166	-0.639443
8.80500	117.184	-0.639428
8.80667	117.201	-0.639426
8.80833	117.217	-0.639424
8.81000	117.233	-0.639427
8.81167	117.251	-0.639434
8.81333	117.267	-0.639442
8.81500	117.283	-0.639457
8.81667	117.299	-0.639482
8.81833	117.317	-0.639509
8.82000	117.334	-0.639540
8.82167	117.349	-0.639568
8.82333	117.367	-0.639584
8.82500	117.384	-0.639596
8.82667	117.400	-0.639607
8.82833	117.417	-0.639618
8.83000	117.434	-0.639625
8.83167	117.450	-0.639628
8.83333	117.467	-0.639638
8.83500	117.485	-0.639660
8.83667	117.501	-0.639691
8.83833	117.516	-0.639734
8.84000	117.534	-0.639785
8.84167	117.551	-0.639822
8.84333	117.567	-0.639855
8.84500	117.584	-0.639888
8.84667	117.601	-0.639917
8.84833	117.618	-0.639935
8.85000	117.634	-0.639941
8.85167	117.651	-0.639943
8.85333	117.668	-0.639946
8.85500	117.684	-0.639956
8.85667	117.700	-0.639961
8.85833	117.718	-0.639973
8.86000	117.733	-0.639988
8.86167	117.750	-0.640001
8.86333	117.767	-0.640013
8.86500	117.783	-0.640032
8.86667	117.801	-0.640048
8.86833	117.816	-0.640058
8.87000	117.834	-0.640073
8.87167	117.851	-0.640091
8.87333	117.867	-0.640108
8.87500	117.884	-0.640117
8.87667	117.902	-0.640130
8.87833	117.918	-0.640144
8.88000	117.935	-0.640160
8.88167	117.951	-0.640168
8.88333	117.968	-0.640176
8.88500	117.985	-0.640193
8.88667	118.001	-0.640206
8.88833	118.018	-0.640215
8.89000	118.034	-0.640227
8.89167	118.051	-0.640248
8.89333	118.068	-0.640271
8.89500	118.084	-0.640288
8.89667	118.101	-0.640319
8.89833	118.117	-0.640354
8.90000	118.134	-0.640395
8.90167	118.150	-0.640435
8.90333	118.167	-0.640470
8.90500	118.184	-0.640495
8.90667	118.201	-0.640518
8.90833	118.218	-0.640534
8.91000	118.235	-0.640558
8.91167	118.252	-0.640583
8.91333	118.268	-0.640595
8.91500	118.285	-0.640602
8.91667	118.301	-0.640609
8.91833	118.319	-0.640619
8.92000	118.335	-0.640628
8.92167	118.352	-0.640637
8.92333	118.369	-0.640641
8.92500	118.386	-0.640648
8.92667	118.402	-0.640657
8.92833	118.419	-0.640663
8.93000	118.435	-0.640673
8.93167	118.451	-0.640679
8.93333	118.468	-0.640683
8.93500	118.486	-0.640688
8.93667	118.501	-0.640706
8.93833	118.519	-0.640733
8.94000	118.535	-0.640759
8.94167	118.552	-0.640781
8.94333	118.568	-0.640808
8.94500	118.586	-0.640828
8.94667	118.602	-0.640848
8.94833	118.618	-0.640865
8.95000	118.636	-0.640883
8.95167	118.653	-0.640896
8.95333	118.669	-0.640906
8.95500	118.686	-0.640925
8.95667	118.703	-0.640946
8.95833	118.718	-0.640971
8.96000	118.735	-0.640998
8.96167	118.752	-0.641029
8.96333	118.769	-0.641060
8.96500	118.786	-0.641087
8.96667	118.802	-0.641110
8.96833	118.819	-0.641129
8.97000	118.835	-0.641141
8.97167	118.852	-0.641145
8.97333	118.868	-0.641148
8.97500	118.886	-0.641143
8.97667	118.903	-0.641141
8.97833	118.920	-0.641139
8.98000	118.935	-0.641139
8.98167	118.952	-0.641141
8.98333	118.969	-0.641141
8.98500	118.985	-0.641139
8.98667	119.002	-0.641140
8.98833	119.019	-0.641147
8.99000	119.035	-0.641159
8.99167	119.052	-0.641177
8.99333	119.069	-0.641193
8.99500	119.086	-0.641210
8.99667	119.102	-0.641223
8.99833	119.118	-0.641236
9.00000	119.136	-0.641242
9.00167	119.152	-0.641242
9.00333	119.168	-0.641234
9.00500	119.185	-0.641224
9.00667	119.201	-0.641220
9.00833	119.218	-0.641228
9.01000	119.235	-0.641247
9.01167	119.252	-0.641267
9.01333	119.269	-0.641282
9.01500	119.286	-0.641300
9.01667	119.302	-0.641313
9.01833	119.320	-0.641323
9.02000	119.336	-0.641334
9.02167	119.352	-0.641345
9.02333	119.368	-0.641355
9.02500	119.385	-0.641366
9.02667	119.402	-0.641382
9.02833	119.419	-0.641409
9.03000	119.436	-0.641437
9.03167	119.453	-0.641462
9.03333	119.469	-0.641492
9.03500	119.485	-0.641523
9.03667	119.502	-0.641551
9.03833	119.518	-0.641575
9.04000	119.535	-0.641602
9.04167	119.553	-0.641626
9.04333	119.570	-0.641643
9.04500	119.586	-0.641655
9.04667	119.603	-0.641658
9.04833	119.619	-0.641665
9.05000	119.636	-0.641679
9.05167	119.653	-0.641685
9.05333	119.670	-0.641690
9.05500	119.687	-0.641705
9.05667	119.704	-0.641720
9.05833	119.719	-0.641740
9.06000	119.737	-0.641767
9.06167	119.753	-0.641795
9.06333	119.770	-0.641823
9.06500	119.786	-0.641844
9.06667	119.803	-0.641876
9.06833	119.820	-0.641912
9.07000	119.836	-0.641943
9.07167	119.853	-0.641959
9.07333	119.869	-0.641972
9.07500	119.886	-0.641980
9.07667	119.903	-0.641993
9.07833	119.920	-0.642011
9.08000	119.937	-0.642027
9.08167	119.953	-0.642037
9.08333	119.970	-0.642050
9.08500	119.986	-0.642073
9.08667	120.003	-0.642104
9.08833	120.020	-0.642129
9.09000	120.036	-0.642149
9.09167	120.053	-0.642165
9.09333	120.069	-0.642182
9.09500	120.086	-0.642200
9.09667	120.103	-0.642228
9.09833	120.120	-0.642256
9.10000	120.136	-0.642277
9.10167	120.153	-0.642307
9.10333	120.169	-0.642341
9.10500	120.186	-0.642379
9.10667	120.203	-0.642411
9.10833	120.220	-0.642433
9.11000	120.237	-0.642445
9.11167	120.254	-0.642447
9.11333	120.270	-0.642452
9.11500	120.287	-0.642460
9.11667	120.304	-0.642465
9.11833	120.320	-0.642474
9.12000	120.337	-0.642492
9.12167	120.353	-0.642517
9.12333	120.371	-0.642543
9.12500	120.387	-0.642571
9.12667	120.403	-0.642594
9.12833	120.421	-0.642607
9.13000	120.437	-0.642608
9.13167	120.454	-0.642608
9.13333	120.471	-0.642609
9.13500	120.487	-0.642608
9.13667	120.504	-0.642612
9.13833	120.521	-0.642618
9.14000	120.538	-0.642630
9.14167	120.554	-0.642645
9.14333	120.570	-0.642673
9.14500	120.587	-0.642700
9.14667	120.603	-0.642724
9.14833	120.620	-0.642738
9.15000	120.637	-0.642747
9.15167	120.654	-0.642755
9.15333	120.670	-0.642755
9.15500	120.687	-0.642763
9.15667	120.704	-0.642770
9.15833	120.720	-0.642778
9.16000	120.737	-0.642796
9.16167	120.754	-0.642828
9.16333	120.770	-0.642860
9.16500	120.787	-0.642895
9.16667	120.804	-0.642922
9.16833	120.820	-0.642953
9.17000	120.838	-0.642970
9.17167	120.854	-0.642983
9.17333	120.870	-0.642993
9.17500	120.887	-0.642996
9.17667	120.905	-0.643001
9.17833	120.921	-0.642999
9.18000	120.937	-0.643008
9.18167	120.954	-0.643023
9.18333	120.971	-0.643038
9.18500	120.988	-0.643053
9.18667	121.003	-0.643075
9.18833	121.021	-0.643095
9.19000	121.037	-0.643117
9.19167	121.054	-0.643138
9.19333	121.070	-0.643157
9.19500	121.088	-0.643180
9.19667	121.105	-0.643199
9.19833	121.121	-0.643215
9.20000	121.137	-0.643231
9.20167	121.154	-0.643246
9.20333	121.171	-0.643265
9.20500	121.187	-0.643284
9.20667	121.204	-0.643316
9.20833	121.220	-0.643351
9.21000	121.237	-0.643375
9.21167	121.253	-0.643395
9.21333	121.269	-0.643408
9.21500	121.287	-0.643416
9.21667	121.304	-0.643426
9.21833	121.319	-0.643434
9.22000	121.337	-0.643437
9.22167	121.353	-0.643443
9.22333	121.371	-0.643450
9.22500	121.387	-0.643468
9.22667	121.404	-0.643492
9.22833	121.420	-0.643512
9.23000	121.437	-0.643536
9.23167	121.454	-0.643559
9.23333	121.470	-0.643582
9.23500	121.487	-0.643595
9.23667	121.504	-0.643612
9.23833	121.520	-0.643628
9.24000	121.536	-0.643644
9.24167	121.554	-0.643657
9.24333	121.570	-0.643681
9.24500	121.588	-0.643707
9.24667	121.604	-0.643731
9.24833	121.620	-0.643763
9.25000	121.637	-0.643797
9.25167	121.654	-0.643831
9.25333	121.670	-0.643846
9.25500	121.687	-0.643857
9.25667	121.705	-0.643861
9.25833	121.720	-0.643866
9.26000	121.737	-0.643873
9.26167	121.753	-0.643888
9.26333	121.770	-0.643906
9.26500	121.788	-0.643927
9.26667	121.804	-0.643953
9.26833	121.820	-0.643979
9.27000	121.837	-0.643998
9.27167	121.854	-0.644015
9.27333	121.871	-0.644027
9.27500	121.887	-0.644034
9.27667	121.904	-0.644030
9.27833	121.920	-0.644029
9.28000	121.936	-0.644033
9.28167	121.953	-0.644048
9.28333	121.969	-0.644072
9.28500	121.986	-0.644095
9.28667	122.004	-0.644121
9.28833	122.020	-0.644146
9.29000	122.037	-0.644177
9.29167	122.055	-0.644201
9.29333	122.071	-0.644225
9.29500	122.087	-0.644238
9.29667	122.103	-0.644250
9.29833	122.121	-0.644260
9.30000	122.137	-0.644271
9.30167	122.154	-0.644286
9.30333	122.170	-0.644296
9.30500	122.188	-0.644305
9.30667	122.204	-0.644318
9.30833	122.221	-0.644333
9.31000	122.238	-0.644348
9.31167	122.254	-0.644373
9.31333	122.271	-0.644398
9.31500	122.287	-0.644430
9.31667	122.305	-0.644466
9.31833	122.321	-0.644500
9.32000	122.337	-0.644534
9.32167	122.353	-0.644565
9.32333	122.370	-0.644584
9.32500	122.387	-0.644604
9.32667	122.404	-0.644624
9.32833	122.420	-0.644635
9.33000	122.437	-0.644636
9.33167	122.454	-0.644633
9.33333	122.471	-0.644631
9.33500	122.487	-0.644641
9.33667	122.504	-0.644655
9.33833	122.521	-0.644669
9.34000	122.538	-0.644688
9.34167	122.554	-0.644706
9.34333	122.570	-0.644725
9.34500	122.587	-0.644747
9.34667	122.604	-0.644764
9.34833	122.621	-0.644774
9.35000	122.638	-0.644776
9.35167	122.654	-0.644775
9.35333	122.672	-0.644787
9.35500	122.687	-0.644811
9.35667	122.704	-0.644832
9.35833	122.719	-0.644859
9.36000	122.737	-0.644889
9.36167	122.753	-0.644923
9.36333	122.771	-0.644954
9.36500	122.787	-0.644982
9.36667	122.804	-0.645003
9.36833	122.821	-0.645014
9.37000	122.837	-0.645017
9.37167	122.854	-0.645023
9.37333	122.870	-0.645038
9.37500	122.887	-0.645060
9.37667	122.904	-0.645088
9.37833	122.921	-0.645120
9.38000	122.937	-0.645152
9.38167	122.954	-0.645190
9.38333	122.970	-0.645227
9.38500	122.987	-0.645263
9.38667	123.004	-0.645296
9.38833	123.020	-0.645330
9.39000	123.037	-0.645365
9.39167	123.054	-0.645403
9.39333	123.070	-0.645444
9.39500	123.087	-0.645482
9.39667	123.103	-0.645512
9.39833	123.121	-0.645525
9.40000	123.137	-0.645532
9.40167	123.155	-0.645522
9.40333	123.172	-0.645495
9.40500	123.187	-0.645471
9.40667	123.205	-0.645453
9.40833	123.220	-0.645442
9.41000	123.237	-0.645438
9.41167	123.254	-0.645443
9.41333	123.270	-0.645463
9.41500	123.287	-0.645496
9.41667	123.305	-0.645532
9.41833	123.321	-0.645561
9.42000	123.338	-0.645585
9.42167	123.354	-0.645602
9.42333	123.371	-0.645615
9.42500	123.387	-0.645617
9.42667	123.404	-0.645625
9.42833	123.421	-0.645637
9.43000	123.437	-0.645645
9.43167	123.453	-0.645658
9.43333	123.471	-0.645671
9.43500	123.487	-0.645693
9.43667	123.504	-0.645712
9.43833	123.521	-0.645734
9.44000	123.537	-0.645760
9.44167	123.554	-0.645784
9.44333	123.570	-0.645815
9.44500	123.587	-0.645851
9.44667	123.604	-0.645890
9.44833	123.620	-0.645934
9.45000	123.637	-0.645990
9.45167	123.653	-0.646024
9.45333	123.671	-0.646055
9.45500	123.687	-0.646077
9.45667	123.703	-0.646095
9.45833	123.721	-0.646108
9.46000	123.737	-0.646115
9.46167	123.755	-0.646115
9.46333	123.770	-0.646115
9.46500	123.787	-0.646122
9.46667	123.804	-0.646129
9.46833	123.822	-0.646147
9.47000	123.838	-0.646169
9.47167	123.854	-0.646190
9.47333	123.871	-0.646208
9.47500	123.887	-0.646222
9.47667	123.904	-0.646238
9.47833	123.920	-0.646258
9.48000	123.937	-0.646268
9.48167	123.955	-0.646280
9.48333	123.970	-0.646299
9.48500	123.987	-0.646323
9.48667	124.005	-0.646352
9.48833	124.020	-0.646391
9.49000	124.037	-0.646430
9.49167	124.053	-0.646473
9.49333	124.070	-0.646512
9.49500	124.086	-0.646549
9.49667	124.104	-0.646584
9.49833	124.120	-0.646616
9.50000	124.137	-0.646634
9.50167	124.154	-0.646647
9.50333	124.171	-0.646661
9.50500	124.188	-0.646681
9.50667	124.204	-0.646702
9.50833	124.220	-0.646727
9.51000	124.237	-0.646762
9.51167	124.254	-0.646806
9.51333	124.271	-0.646848
9.51500	124.288	-0.646895
9.51667	124.304	-0.646933
9.51833	124.320	-0.646953
9.52000	124.338	-0.646962
9.52167	124.354	-0.646969
9.52333	124.370	-0.646975
9.52500	124.387	-0.646976
9.52667	124.404	-0.646975
9.52833	124.420	-0.646988
9.53000	124.437	-0.647010
9.53167	124.453	-0.647030
9.53333	124.470	-0.647061
9.53500	124.486	-0.647092
9.53667	124.503	-0.647117
9.53833	124.520	-0.647144
9.54000	124.536	-0.647167
9.54167	124.553	-0.647193
9.54333	124.571	-0.647215
9.54500	124.587	-0.647236
9.54667	124.604	-0.647252
9.54833	124.620	-0.647270
9.55000	124.637	-0.647288
9.55167	124.655	-0.647311
9.55333	124.671	-0.647344
9.55500	124.688	-0.647377
9.55667	124.704	-0.647409
9.55833	124.720	-0.647435
9.56000	124.736	-0.647463
9.56167	124.754	-0.647490
9.56333	124.769	-0.647520
9.56500	124.786	-0.647555
9.56667	124.802	-0.647599
9.56833	124.820	-0.647641
9.57000	124.837	-0.647677
9.57167	124.854	-0.647706
9.57333	124.870	-0.647726
9.57500	124.886	-0.647746
9.57667	124.903	-0.647758
9.57833	124.920	-0.647763
9.58000	124.937	-0.647768
9.58167	124.954	-0.647766
9.58333	124.970	-0.647768
9.58500	124.987	-0.647782
9.58667	125.003	-0.647802
9.58833	125.020	-0.647829
9.59000	125.037	-0.647858
9.59167	125.054	-0.647888
9.59333	125.070	-0.647929
9.59500	125.086	-0.647982
9.59667	125.104	-0.648023
9.59833	125.120	-0.648058
9.60000	125.136	-0.648086
9.60167	125.153	-0.648109
9.60333	125.171	-0.648123
9.60500	125.188	-0.648142
9.60667	125.203	-0.648160
9.60833	125.220	-0.648182
9.61000	125.237	-0.648207
9.61167	125.254	-0.648237
9.61333	125.271	-0.648259
9.61500	125.287	-0.648277
9.61667	125.304	-0.648292
9.61833	125.320	-0.648309
9.62000	125.337	-0.648315
9.62167	125.354	-0.648319
9.62333	125.370	-0.648321
9.62500	125.386	-0.648326
9.62667	125.402	-0.648333
9.62833	125.420	-0.648341
9.63000	125.437	-0.648363
9.63167	125.453	-0.648387
9.63333	125.470	-0.648413
9.63500	125.487	-0.648430
9.63667	125.503	-0.648448
9.63833	125.520	-0.648464
9.64000	125.537	-0.648478
9.64167	125.554	-0.648495
9.64333	125.571	-0.648515
9.64500	125.587	-0.648535
9.64667	125.602	-0.648556
9.64833	125.621	-0.648584
9.65000	125.637	-0.648614
9.65167	125.653	-0.648637
9.65333	125.669	-0.648645
9.65500	125.687	-0.648648
9.65667	125.704	-0.648650
9.65833	125.721	-0.648647
9.66000	125.737	-0.648651
9.66167	125.753	-0.648662
9.66333	125.770	-0.648675
9.66500	125.787	-0.648687
9.66667	125.803	-0.648710
9.66833	125.820	-0.648733
9.67000	125.837	-0.648757
9.67167	125.853	-0.648780
9.67333	125.870	-0.648804
9.67500	125.887	-0.648824
9.67667	125.904	-0.648835
9.67833	125.920	-0.648847
9.68000	125.937	-0.648864
9.68167	125.954	-0.648882
9.68333	125.970	-0.648902
9.68500	125.986	-0.648917
9.68667	126.003	-0.648932
9.68833	126.019	-0.648946
9.69000	126.037	-0.648956
9.69167	126.053	-0.648972
9.69333	126.069	-0.648986
9.69500	126.087	-0.649000
9.69667	126.102	-0.649021
9.69833	126.119	-0.649045
9.70000	126.137	-0.649070
9.70167	126.153	-0.649101
9.70333	126.170	-0.649133
9.70500	126.186	-0.649158
9.70667	126.203	-0.649183
9.70833	126.219	-0.649201
9.71000	126.236	-0.649232
9.71167	126.253	-0.649264
9.71333	126.270	-0.649296
9.71500	126.286	-0.649327
9.71667	126.303	-0.649361
9.71833	126.320	-0.649403
9.72000	126.336	-0.649466
9.72167	126.353	-0.649693
9.72333	126.369	-0.649926
9.72500	126.386	-0.650140
9.72667	126.403	-0.650439
9.72833	126.420	-0.650828
9.73000	126.436	-0.651150
9.73167	126.453	-0.651317
9.73333	126.469	-0.651392
9.73500	126.486	-0.651436
9.73667	126.503	-0.651468
9.73833	126.519	-0.651492
9.74000	126.536	-0.651516
9.74167	126.553	-0.651538
9.74333	126.569	-0.651556
9.74500	126.586	-0.651579
9.74667	126.603	-0.651596
9.74833	126.620	-0.651614
9.75000	126.636	-0.651630
9.75167	126.653	-0.651647
9.75333	126.669	-0.651679
9.75500	126.686	-0.651710
9.75667	126.703	-0.651742
9.75833	126.719	-0.651772
9.76000	126.737	-0.651797
9.76167	126.753	-0.651817
9.76333	126.770	-0.651830
9.76500	126.786	-0.651844
9.76667	126.803	-0.651850
9.76833	126.820	-0.651867
9.77000	126.836	-0.651888
9.77167	126.854	-0.651929
9.77333	126.870	-0.652061
9.77500	126.887	-0.652131
9.77667	126.904	-0.652223
9.77833	126.919	-0.652264
9.78000	126.936	-0.652297
9.78167	126.953	-0.652313
9.78333	126.969	-0.652319
9.78500	126.986	-0.652307
9.78667	127.002	-0.652296
9.78833	127.019	-0.652287
9.79000	127.036	-0.652281
9.79167	127.053	-0.652286
9.79333	127.070	-0.652294
9.79500	127.086	-0.652303
9.79667	127.103	-0.652307
9.79833	127.120	-0.652315
9.80000	127.137	-0.652320
9.80167	127.153	-0.652323
9.80333	127.170	-0.652331
9.80500	127.187	-0.652346
9.80667	127.203	-0.652362
9.80833	127.219	-0.652371
9.81000	127.236	-0.652379
9.81167	127.253	-0.652398
9.81333	127.270	-0.652412
9.81500	127.286	-0.652424
9.81667	127.303	-0.652439
9.81833	127.320	-0.652455
9.82000	127.337	-0.652467
9.82167	127.354	-0.652486
9.82333	127.370	-0.652502
9.82500	127.386	-0.652521
9.82667	127.403	-0.652537
9.82833	127.420	-0.652546
9.83000	127.436	-0.652557
9.83167	127.453	-0.652562
9.83333	127.470	-0.652562
9.83500	127.486	-0.652565
9.83667	127.503	-0.652568
9.83833	127.520	-0.652568
9.84000	127.537	-0.652575
9.84167	127.553	-0.652581
9.84333	127.570	-0.652591
9.84500	127.587	-0.652606
9.84667	127.603	-0.652619
9.84833	127.620	-0.652628
9.85000	127.636	-0.652639
9.85167	127.652	-0.652647
9.85333	127.670	-0.652658
9.85500	127.686	-0.652672
9.85667	127.702	-0.652694
9.85833	127.720	-0.652717
9.86000	127.736	-0.652751
9.86167	127.753	-0.652783
9.86333	127.769	-0.652828
9.86500	127.786	-0.652860
9.86667	127.804	-0.652882
9.86833	127.821	-0.652900
9.87000	127.837	-0.652914
9.87167	127.854	-0.652922
9.87333	127.872	-0.652929
9.87500	127.888	-0.652941
9.87667	127.905	-0.652959
9.87833	127.921	-0.652983
9.88000	127.937	-0.653003
9.88167	127.954	-0.653029
9.88333	127.971	-0.653060
9.88500	127.988	-0.653087
9.88667	128.004	-0.653113
9.88833	128.021	-0.653135
9.89000	128.038	-0.653153
9.89167	128.054	-0.653167
9.89333	128.070	-0.653186
9.89500	128.087	-0.653195
9.89667	128.103	-0.653210
9.89833	128.121	-0.653211
9.90000	128.137	-0.653216
9.90167	128.154	-0.653220
9.90333	128.171	-0.653222
9.90500	128.188	-0.653229
9.90667	128.204	-0.653238
9.90833	128.221	-0.653248
9.91000	128.237	-0.653258
9.91167	128.254	-0.653273
9.91333	128.270	-0.653283
9.91500	128.287	-0.653293
9.91667	128.304	-0.653296
9.91833	128.320	-0.653295
9.92000	128.338	-0.653296
9.92167	128.355	-0.653302
9.92333	128.371	-0.653310
9.92500	128.388	-0.653321
9.92667	128.405	-0.653327
9.92833	128.421	-0.653336
9.93000	128.438	-0.653347
9.93167	128.455	-0.653351
9.93333	128.471	-0.653341
9.93500	128.487	-0.653329
9.93667	128.504	-0.653318
9.93833	128.521	-0.653316
9.94000	128.537	-0.653316
9.94167	128.555	-0.653321
9.94333	128.571	-0.653331
9.94500	128.587	-0.653345
9.94667	128.604	-0.653355
9.94833	128.622	-0.653375
9.95000	128.637	-0.653392
9.95167	128.654	-0.653397
9.95333	128.672	-0.653404
9.95500	128.688	-0.653409
9.95667	128.704	-0.653420
9.95833	128.721	-0.653429
9.96000	128.739	-0.653446
9.96167	128.754	-0.653462
9.96333	128.771	-0.653483
9.96500	128.788	-0.653499
9.96667	128.804	-0.653512
9.96833	128.821	-0.653519
9.97000	128.838	-0.653525
9.97167	128.854	-0.653527
9.97333	128.872	-0.653534
9.97500	128.888	-0.653538
9.97667	128.904	-0.653544
9.97833	128.922	-0.653554
9.98000	128.939	-0.653573
9.98167	128.955	-0.653594
9.98333	128.971	-0.653611
9.98500	128.988	-0.653624
9.98667	129.004	-0.653630
9.98833	129.021	-0.653632
9.99000	129.038	-0.653634
9.99167	129.055	-0.653637
9.99333	129.071	-0.653637
9.99500	129.088	-0.653635
9.99667	129.105	-0.653632
9.99833	129.122	-0.653635
10.0000	129.138	-0.653644
10.0017	129.155	-0.653659
10.0033	129.171	-0.653671
10.0050	129.187	-0.653684
10.0067	129.205	-0.653690
10.0083	129.221	-0.653701
10.0100	129.239	-0.653708
10.0117	129.254	-0.653722
10.0133	129.270	-0.653735
10.0150	129.287	-0.653754
10.0167	129.304	-0.653771
10.0183	129.321	-0.653794
10.0200	129.338	-0.653823
10.0217	129.353	-0.653846
10.0233	129.372	-0.653859
10.0250	129.388	-0.653868
10.0267	129.404	-0.653872
10.0283	129.421	-0.653879
10.0300	129.438	-0.653884
10.0317	129.454	-0.653887
10.0333	129.471	-0.653894
10.0350	129.488	-0.653904
10.0367	129.505	-0.653919
10.0383	129.522	-0.653936
10.0400	129.538	-0.653949
10.0417	129.554	-0.653962
10.0433	129.572	-0.653982
10.0450	129.589	-0.654004
10.0467	129.605	-0.654037
10.0483	129.621	-0.654071
10.0500	129.638	-0.654107
10.0517	129.655	-0.654141
10.0533	129.673	-0.654179
10.0550	129.688	-0.654216
10.0567	129.706	-0.654234
10.0583	129.722	-0.654242
10.0600	129.738	-0.654244
10.0617	129.754	-0.654244
10.0633	129.771	-0.654237
10.0650	129.787	-0.654239
10.0667	129.804	-0.654244
10.0683	129.821	-0.654257
10.0700	129.838	-0.654267
10.0717	129.855	-0.654287
10.0733	129.871	-0.654307
10.0750	129.888	-0.654324
10.0767	129.904	-0.654346
10.0783	129.921	-0.654363
10.0800	129.938	-0.654373
10.0817	129.955	-0.654388
10.0833	129.973	-0.654404
10.0850	129.988	-0.654429
10.0867	130.005	-0.654458
10.0883	130.021	-0.654485
10.0900	130.038	-0.654521
10.0917	130.055	-0.654550
10.0933	130.072	-0.654584
10.0950	130.089	-0.654625
10.0967	130.104	-0.654657
10.0983	130.122	-0.654680
10.1000	130.138	-0.654704
10.1017	130.155	-0.654719
10.1033	130.172	-0.654731
10.1050	130.188	-0.654738
10.1067	130.205	-0.654750
10.1083	130.221	-0.654758
10.1100	130.238	-0.654771
10.1117	130.253	-0.654785
10.1133	130.271	-0.654802
10.1150	130.288	-0.654815
10.1167	130.305	-0.654823
10.1183	130.321	-0.654830
10.1200	130.339	-0.654838
10.1217	130.355	-0.654842
10.1233	130.372	-0.654857
10.1250	130.388	-0.654874
10.1267	130.405	-0.654899
10.1283	130.421	-0.654938
10.1300	130.438	-0.654987
10.1317	130.455	-0.655021
10.1333	130.471	-0.655044
10.1350	130.488	-0.655053
10.1367	130.504	-0.655062
10.1383	130.521	-0.655067
10.1400	130.537	-0.655068
10.1417	130.554	-0.655077
10.1433	130.571	-0.655084
10.1450	130.589	-0.655099
10.1467	130.605	-0.655122
10.1483	130.621	-0.655151
10.1500	130.638	-0.655179
10.1517	130.655	-0.655201
10.1533	130.671	-0.655216
10.1550	130.688	-0.655232
10.1567	130.704	-0.655253
10.1583	130.721	-0.655275
10.1600	130.738	-0.655305
10.1617	130.755	-0.655336
10.1633	130.771	-0.655366
10.1650	130.788	-0.655390
10.1667	130.804	-0.655406
10.1683	130.821	-0.655408
10.1700	130.838	-0.655410
10.1717	130.854	-0.655412
10.1733	130.870	-0.655416
10.1750	130.887	-0.655414
10.1767	130.904	-0.655414
10.1783	130.921	-0.655417
10.1800	130.938	-0.655423
10.1817	130.955	-0.655441
10.1833	130.971	-0.655458
10.1850	130.988	-0.655476
10.1867	131.004	-0.655487
10.1883	131.021	-0.655499
10.1900	131.038	-0.655517
10.1917	131.054	-0.655535
10.1933	131.071	-0.655550
10.1950	131.088	-0.655566
10.1967	131.104	-0.655587
10.1983	131.122	-0.655609
10.2000	131.138	-0.655658
10.2017	131.154	-0.655769
10.2033	131.171	-0.655922
10.2050	131.188	-0.656001
10.2067	131.204	-0.656039
10.2083	131.222	-0.656073
10.2100	131.238	-0.656105
10.2117	131.255	-0.656125
10.2133	131.271	-0.656134
10.2150	131.288	-0.656131
10.2167	131.303	-0.656117
10.2183	131.320	-0.656109
10.2200	131.337	-0.656100
10.2217	131.354	-0.656100
10.2233	131.371	-0.656107
10.2250	131.388	-0.656116
10.2267	131.404	-0.656131
10.2283	131.421	-0.656147
10.2300	131.438	-0.656166
10.2317	131.455	-0.656185
10.2333	131.472	-0.656203
10.2350	131.488	-0.656220
10.2367	131.503	-0.656239
10.2383	131.521	-0.656266
10.2400	131.538	-0.656300
10.2417	131.553	-0.656336
10.2433	131.570	-0.656367
10.2450	131.588	-0.656394
10.2467	131.604	-0.656416
10.2483	131.622	-0.656428
10.2500	131.639	-0.656438
10.2517	131.655	-0.656457
10.2533	131.671	-0.656475
10.2550	131.687	-0.656506
10.2567	131.704	-0.656543
10.2583	131.721	-0.656597
10.2600	131.738	-0.656678
10.2617	131.754	-0.656710
10.2633	131.771	-0.656729
10.2650	131.788	-0.656751
10.2667	131.805	-0.656774
10.2683	131.821	-0.656792
10.2700	131.837	-0.656811
10.2717	131.855	-0.656841
10.2733	131.871	-0.656876
10.2750	131.888	-0.656907
10.2767	131.904	-0.656938
10.2783	131.922	-0.656963
10.2800	131.938	-0.656980
10.2817	131.954	-0.656983
10.2833	131.971	-0.656985
10.2850	131.988	-0.656990
10.2867	132.005	-0.656994
10.2883	132.022	-0.656999
10.2900	132.038	-0.657019
10.2917	132.054	-0.657053
10.2933	132.071	-0.657083
10.2950	132.087	-0.657114
10.2967	132.104	-0.657143
10.2983	132.121	-0.657167
10.3000	132.137	-0.657188
10.3017	132.154	-0.657209
10.3033	132.171	-0.657224
10.3050	132.188	-0.657242
10.3067	132.204	-0.657259
10.3083	132.222	-0.657284
10.3100	132.238	-0.657312
10.3117	132.255	-0.657335
10.3133	132.272	-0.657370
10.3150	132.289	-0.657401
10.3167	132.306	-0.657422
10.3183	132.322	-0.657438
10.3200	132.338	-0.657456
10.3217	132.355	-0.657477
10.3233	132.371	-0.657498
10.3250	132.388	-0.657522
10.3267	132.404	-0.657550
10.3283	132.422	-0.657571
10.3300	132.438	-0.657593
10.3317	132.455	-0.657617
10.3333	132.472	-0.657645
10.3350	132.488	-0.657668
10.3367	132.505	-0.657682
10.3383	132.522	-0.657696
10.3400	132.538	-0.657707
10.3417	132.554	-0.657719
10.3433	132.572	-0.657737
10.3450	132.588	-0.657763
10.3467	132.605	-0.657793
10.3483	132.621	-0.657829
10.3500	132.638	-0.657870
10.3517	132.655	-0.657977
10.3533	132.672	-0.658145
10.3550	132.689	-0.658293
10.3567	132.705	-0.658361
10.3583	132.722	-0.658404
10.3600	132.739	-0.658442
10.3617	132.756	-0.658478
10.3633	132.772	-0.658504
10.3650	132.789	-0.658533
10.3667	132.805	-0.658555
10.3683	132.822	-0.658565
10.3700	132.838	-0.658582
10.3717	132.856	-0.658604
10.3733	132.872	-0.658621
10.3750	132.889	-0.658632
10.3767	132.906	-0.658640
10.3783	132.922	-0.658649
10.3800	132.939	-0.658659
10.3817	132.955	-0.658663
10.3833	132.972	-0.658680
10.3850	132.989	-0.658708
10.3867	133.005	-0.658734
10.3883	133.022	-0.658761
10.3900	133.038	-0.658785
10.3917	133.055	-0.658806
10.3933	133.072	-0.658819
10.3950	133.089	-0.658832
10.3967	133.106	-0.658845
10.3983	133.122	-0.658854
10.4000	133.139	-0.658860
10.4017	133.155	-0.658875
10.4033	133.172	-0.658893
10.4050	133.189	-0.658915
10.4067	133.205	-0.658938
10.4083	133.222	-0.658969
10.4100	133.239	-0.658999
10.4117	133.256	-0.659030
10.4133	133.272	-0.659066
10.4150	133.289	-0.659102
10.4167	133.306	-0.659134
10.4183	133.322	-0.659168
10.4200	133.339	-0.659198
10.4217	133.355	-0.659219
10.4233	133.372	-0.659230
10.4250	133.389	-0.659237
10.4267	133.407	-0.659249
10.4283	133.423	-0.659264
10.4300	133.440	-0.659280
10.4317	133.456	-0.659310
10.4333	133.474	-0.659339
10.4350	133.490	-0.659374
10.4367	133.506	-0.659413
10.4383	133.523	-0.659450
10.4400	133.539	-0.659487
10.4417	133.556	-0.659513
10.4433	133.572	-0.659534
10.4450	133.590	-0.659550
10.4467	133.606	-0.659563
10.4483	133.623	-0.659570
10.4500	133.639	-0.659580
10.4517	133.656	-0.659588
10.4533	133.673	-0.659605
10.4550	133.690	-0.659624
10.4567	133.706	-0.659648
10.4583	133.723	-0.659678
10.4600	133.739	-0.659721
10.4617	133.757	-0.659765
10.4633	133.773	-0.659798
10.4650	133.790	-0.659827
10.4667	133.807	-0.659846
10.4683	133.824	-0.659862
10.4700	133.840	-0.659866
10.4717	133.856	-0.659869
10.4733	133.873	-0.659865
10.4750	133.890	-0.659851
10.4767	133.906	-0.659852
10.4783	133.923	-0.659858
10.4800	133.940	-0.659870
10.4817	133.957	-0.659886
10.4833	133.974	-0.659909
10.4850	133.989	-0.659941
10.4867	134.007	-0.659976
10.4883	134.024	-0.660014
10.4900	134.039	-0.660049
10.4917	134.056	-0.660079
10.4933	134.072	-0.660104
10.4950	134.090	-0.660124
10.4967	134.106	-0.660130
10.4983	134.122	-0.660132
10.5000	134.139	-0.660135
10.5017	134.156	-0.660149
10.5033	134.173	-0.660169
10.5050	134.189	-0.660193
10.5067	134.206	-0.660215
10.5083	134.223	-0.660236
10.5100	134.240	-0.660261
10.5117	134.257	-0.660288
10.5133	134.273	-0.660319
10.5150	134.290	-0.660344
10.5167	134.306	-0.660364
10.5183	134.323	-0.660381
10.5200	134.340	-0.660409
10.5217	134.356	-0.660442
10.5233	134.373	-0.660478
10.5250	134.390	-0.660515
10.5267	134.406	-0.660544
10.5283	134.423	-0.660570
10.5300	134.440	-0.660586
10.5317	134.455	-0.660602
10.5333	134.472	-0.660608
10.5350	134.489	-0.660606
10.5367	134.507	-0.660588
10.5383	134.523	-0.660573
10.5400	134.539	-0.660563
10.5417	134.557	-0.660557
10.5433	134.572	-0.660558
10.5450	134.589	-0.660571
10.5467	134.607	-0.660599
10.5483	134.623	-0.660627
10.5500	134.640	-0.660657
10.5517	134.657	-0.660689
10.5533	134.672	-0.660709
10.5550	134.689	-0.660721
10.5567	134.706	-0.660730
10.5583	134.722	-0.660735
10.5600	134.739	-0.660728
10.5617	134.756	-0.660725
10.5633	134.772	-0.660728
10.5650	134.789	-0.660741
10.5667	134.806	-0.660761
10.5683	134.823	-0.660800
10.5700	134.839	-0.660878
10.5717	134.856	-0.660934
10.5733	134.874	-0.660985
10.5750	134.890	-0.661033
10.5767	134.906	-0.661069
10.5783	134.924	-0.661100
10.5800	134.940	-0.661130
10.5817	134.956	-0.661149
10.5833	134.973	-0.661165
10.5850	134.990	-0.661177
10.5867	135.006	-0.661194
10.5883	135.023	-0.661215
10.5900	135.039	-0.661240
10.5917	135.057	-0.661263
10.5933	135.072	-0.661280
10.5950	135.089	-0.661289
10.5967	135.106	-0.661298
10.5983	135.122	-0.661309
10.6000	135.139	-0.661319
10.6017	135.155	-0.661328
10.6033	135.172	-0.661338
10.6050	135.190	-0.661359
10.6067	135.205	-0.661381
10.6083	135.223	-0.661408
10.6100	135.239	-0.661433
10.6117	135.255	-0.661460
10.6133	135.272	-0.661486
10.6150	135.289	-0.661510
10.6167	135.306	-0.661533
10.6183	135.322	-0.661554
10.6200	135.339	-0.661570
10.6217	135.356	-0.661588
10.6233	135.373	-0.661616
10.6250	135.390	-0.661643
10.6267	135.406	-0.661668
10.6283	135.424	-0.661692
10.6300	135.440	-0.661711
10.6317	135.457	-0.661725
10.6333	135.472	-0.661739
10.6350	135.488	-0.661754
10.6367	135.506	-0.661765
10.6383	135.522	-0.661765
10.6400	135.539	-0.661761
10.6417	135.556	-0.661763
10.6433	135.572	-0.661763
10.6450	135.590	-0.661764
10.6467	135.605	-0.661773
10.6483	135.623	-0.661792
10.6500	135.639	-0.661815
10.6517	135.656	-0.661842
10.6533	135.672	-0.661888
10.6550	135.690	-0.661963
10.6567	135.706	-0.662027
10.6583	135.723	-0.662110
10.6600	135.739	-0.662195
10.6617	135.756	-0.662227
10.6633	135.773	-0.662252
10.6650	135.790	-0.662269
10.6667	135.806	-0.662291
10.6683	135.823	-0.662308
10.6700	135.840	-0.662324
10.6717	135.856	-0.662344
10.6733	135.873	-0.662372
10.6750	135.889	-0.662406
10.6767	135.907	-0.662448
10.6783	135.923	-0.662497
10.6800	135.940	-0.662537
10.6817	135.956	-0.662575
10.6833	135.973	-0.662608
10.6850	135.990	-0.662629
10.6867	136.007	-0.662645
10.6883	136.024	-0.662663
10.6900	136.039	-0.662684
10.6917	136.056	-0.662703
10.6933	136.073	-0.662724
10.6950	136.090	-0.662754
10.6967	136.107	-0.662787
10.6983	136.123	-0.662825
10.7000	136.140	-0.662865
10.7017	136.156	-0.662905
10.7033	136.173	-0.662939
10.7050	136.190	-0.662954
10.7067	136.206	-0.662966
10.7083	136.222	-0.662982
10.7100	136.240	-0.663003
10.7117	136.256	-0.663024
10.7133	136.273	-0.663044
10.7150	136.290	-0.663068
10.7167	136.306	-0.663098
10.7183	136.323	-0.663127
10.7200	136.340	-0.663161
10.7217	136.356	-0.663195
10.7233	136.372	-0.663214
10.7250	136.391	-0.663224
10.7267	136.407	-0.663233
10.7283	136.423	-0.663248
10.7300	136.440	-0.663268
10.7317	136.457	-0.663290
10.7333	136.474	-0.663320
10.7350	136.489	-0.663358
10.7367	136.507	-0.663396
10.7383	136.523	-0.663439
10.7400	136.539	-0.663484
10.7417	136.556	-0.663520
10.7433	136.573	-0.663552
10.7450	136.590	-0.663584
10.7467	136.607	-0.663611
10.7483	136.624	-0.663635
10.7500	136.641	-0.663664
10.7517	136.657	-0.663698
10.7533	136.673	-0.663735
10.7550	136.691	-0.663772
10.7567	136.708	-0.663815
10.7583	136.724	-0.663858
10.7600	136.741	-0.663894
10.7617	136.757	-0.663929
10.7633	136.773	-0.663951
10.7650	136.790	-0.663968
10.7667	136.807	-0.663982
10.7683	136.825	-0.664000
10.7700	136.840	-0.664021
10.7717	136.857	-0.664040
10.7733	136.874	-0.664051
10.7750	136.890	-0.664064
10.7767	136.907	-0.664077
10.7783	136.923	-0.664093
10.7800	136.941	-0.664112
10.7817	136.957	-0.664131
10.7833	136.974	-0.664151
10.7850	136.991	-0.664175
10.7867	137.008	-0.664202
10.7883	137.024	-0.664230
10.7900	137.042	-0.664264
10.7917	137.058	-0.664285
10.7933	137.074	-0.664299
10.7950	137.090	-0.664313
10.7967	137.107	-0.664327
10.7983	137.124	-0.664347
10.8000	137.141	-0.664366
10.8017	137.157	-0.664379
10.8033	137.174	-0.664395
10.8050	137.191	-0.664412
10.8067	137.207	-0.664429
10.8083	137.225	-0.664447
10.8100	137.242	-0.664465
10.8117	137.258	-0.664479
10.8133	137.274	-0.664485
10.8150	137.291	-0.664488
10.8167	137.307	-0.664486
10.8183	137.325	-0.664479
10.8200	137.341	-0.664472
10.8217	137.358	-0.664468
10.8233	137.375	-0.664463
10.8250	137.391	-0.664470
10.8267	137.408	-0.664499
10.8283	137.425	-0.664560
10.8300	137.441	-0.664666
10.8317	137.457	-0.664745
10.8333	137.473	-0.664811
10.8350	137.490	-0.664850
10.8367	137.507	-0.664878
10.8383	137.522	-0.664896
10.8400	137.540	-0.664904
10.8417	137.557	-0.664903
10.8433	137.574	-0.664896
10.8450	137.591	-0.664896
10.8467	137.607	-0.664902
10.8483	137.625	-0.664914
10.8500	137.642	-0.664923
10.8517	137.659	-0.664936
10.8533	137.675	-0.664948
10.8550	137.693	-0.664959
10.8567	137.708	-0.664967
10.8583	137.725	-0.664966
10.8600	137.742	-0.664970
10.8617	137.758	-0.664970
10.8633	137.775	-0.664973
10.8650	137.791	-0.664978
10.8667	137.808	-0.664991
10.8683	137.824	-0.665012
10.8700	137.841	-0.665029
10.8717	137.857	-0.665044
10.8733	137.874	-0.665054
10.8750	137.890	-0.665066
10.8767	137.908	
10.8783	137.924	
10.8800	137.940	
10.8817	137.956	
10.8833	137.973	
10.8850	137.990	
10.8867	138.007	
10.8883	138.023	
10.8900	138.040	
10.8917	138.057	
10.8933	138.074	
10.8950	138.091	
10.8967	138.108	
10.8983	138.124	
10.9000	138.141	
10.9017	138.158	
10.9033	138.175	
10.9050	138.191	
10.9067	138.209	
10.9083	138.225	
10.9100	138.241	
10.9117	138.258	
10.9133	138.275	
10.9150	138.291	
10.9167	138.309	
10.9183	138.325	
10.9200	138.341	
10.9217	138.358	
10.9233	138.374	
10.9250	138.391	
10.9267		
10.9283		
10.9300		
10.9317		
10.9333		

